AccelerationX,AccelerationY,AccelerationZ,Time
,,,
-1.750651804,0.020722881,-1.044110718,1644709462
,,,
-1.805604905,0,-0.910652938,1644709462
,,,
-1.868408552,0,-1.028409746,1644709462
,,,
-1.766352656,0.397543323,-1.028409746,1644709462
,,,
-1.829156303,0.428944068,-1.075512541,1644709462
,,,
-1.789904053,0.468195957,-1.099063939,1644709462
,,,
-1.679997612,0,-1.11476479,1644709462
,,,
-1.62504451,0.468195957,-1.43663345,1644709462
,,,
-1.577941715,0.468195957,-1.169718011,1644709462
,,,
-1.515138069,0.538852427,-1.326727128,1644709462
,,,
-1.679997612,0.570253172,-1.24822251,1644709462
,,,
-1.766352656,0.452497503,-1.263923482,1644709462
,,,
-1.577941715,0.523150137,-1.208970261,1644709462
,,,
-1.601493113,0.413245613,-1.169718011,1644709462
,,,
-1.62504451,0.436795213,-1.138316188,1644709462
,,,
-1.593642687,0.562402027,-1.208970261,1644709462
,,,
-1.585792141,0.554550882,-1.303175731,1644709462
,,,
-1.577941715,0.476047102,-1.185418863,1644709462
,,,
-1.62504451,0.444646358,-1.067662115,1644709462
,,,
-1.75850223,0,-0.997007923,1644709462
,,,
-1.62504451,0.397543323,-1.208970261,1644709462
,,,
-1.609343539,0.468195957,-1.091213393,1644709462
,,,
-1.797754479,0.585955462,-0.973456585,1644709462
,,,
-1.829156303,0,-0.981307011,1644709462
,,,
-1.821305877,0.350440288,-1.083362967,1644709462
,,,
-1.868408552,0.319039544,-1.012708894,1644709462
,,,
-1.742801258,0.319039544,-0.973456585,1644709462
,,,
-1.837006728,0.436795213,-0.839998806,1644709462
,,,
-1.907660921,0,-0.918503364,1644709462
,,,
-1.837006728,0,-0.824297894,1644709462
,,,
-1.860558126,0,-0.769344733,1644709462
,,,
-1.75850223,0,-0.777195159,1644709462
,,,
-1.672147186,0,-0.934204276,1644709462
,,,
-1.813455451,0,-0.792896071,1644709462
,,,
-1.813455451,0,-0.847849292,1644709462
,,,
-1.687848157,0,-0.667288777,1644709462
,,,
-1.782053627,0,-0.714391512,1644709462
,,,
-1.742801258,0,-0.706541086,1644709462
,,,
-1.774203082,0.366142578,-0.596634704,1644709462
,,,
-1.797754479,0.303337254,-0.753643821,1644709462
,,,
-1.75850223,0,-0.745793336,1644709462
,,,
-1.750651804,0,-0.706541086,1644709462
,,,
-1.805604905,0,-0.675139263,1644709462
,,,
-1.711399435,0,-0.573083307,1644709462
,,,
-1.75850223,0,-0.651587865,1644709462
,,,
-1.75850223,0.389692178,-0.690840175,1644709462
,,,
-1.695698583,0,-0.706541086,1644709462
,,,
-1.837006728,0.303337254,-0.518130146,1644709462
,,,
-1.648595788,0.311188399,-0.502429204,1644709462
,,,
-1.734950832,0.319039544,-0.722241998,1644709462
,,,
-1.915511347,0,-0.6986906,1644709462
,,,
-1.75850223,0,-0.745793336,1644709462
,,,
-1.679997612,0,-0.549531969,1644709462
,,,
-1.805604905,0.373993723,-0.730092424,1644709462
,,,
-1.797754479,0,-0.659438351,1644709462
,,,
-1.62504451,0,-0.64373744,1644709463
,,,
-1.734950832,0.326890689,-0.573083307,1644709463
,,,
-1.829156303,0,-0.60448513,1644709463
,,,
-1.711399435,0,-0.580933793,1644709463
,,,
-1.703549009,0,-0.549531969,1644709463
,,,
-1.656446334,0,-0.580933793,1644709463
,,,
-1.734950832,0,-0.635886954,1644709463
,,,
-1.860558126,0,-0.651587865,1644709463
,,,
-1.789904053,0,-0.64373744,1644709463
,,,
-1.734950832,0,-0.682989689,1644709463
,,,
-1.617193965,0,-0.682989689,1644709463
,,,
-1.789904053,0.366142578,-0.620186042,1644709463
,,,
-1.687848157,0.334737998,-0.73794291,1644709463
,,,
-1.617193965,0.303337254,-0.690840175,1644709463
,,,
-1.640745362,0.319039544,-0.824297894,1644709463
,,,
-1.75850223,0,-0.620186042,1644709463
,,,
-1.546539892,0,-0.816447468,1644709463
,,,
-1.617193965,0,-0.769344733,1644709463
,,,
-1.766352656,0.350440288,-0.635886954,1644709463
,,,
-1.656446334,0,-0.612335616,1644709463
,,,
-1.734950832,0,-0.6986906,1644709463
,,,
-1.75850223,0.460348648,-0.816447468,1644709463
,,,
-1.66429676,0,-0.863550203,1644709463
,,,
-1.805604905,0.413245613,-0.761494247,1644709463
,,,
-1.609343539,0.373993723,-0.839998806,1644709463
,,,
-1.546539892,0,-0.769344733,1644709463
,,,
-1.656446334,0,-0.965606099,1644709463
,,,
-1.687848157,0.452497503,-0.973456585,1644709463
,,,
-1.797754479,0.515298992,-0.847849292,1644709463
,,,
-1.75850223,0.421092923,-1.004858409,1644709463
,,,
-1.648595788,0,-1.012708894,1644709463
,,,
-1.868408552,0,-1.044110718,1644709463
,,,
-1.719249981,0,-1.02055932,1644709463
,,,
-1.687848157,0,-1.106914365,1644709463
,,,
-1.8527077,0.311188399,-0.918503364,1644709463
,,,
-1.923361773,0.413245613,-0.934204276,1644709463
,,,
-1.727100407,0,-0.918503364,1644709463
,,,
-1.789904053,0.350440288,-0.942054762,1644709463
,,,
-1.648595788,0.350440288,-0.942054762,1644709463
,,,
-1.797754479,0,-0.816447468,1644709463
,,,
-1.609343539,0,-1.05981157,1644709463
,,,
-1.711399435,0,-0.839998806,1644709463
,,,
-1.884109523,0,-0.887101541,1644709463
,,,
-1.632894936,0,-0.745793336,1644709463
,,,
-1.75850223,0,-0.628036528,1644709463
,,,
-1.837006728,0.303337254,-0.816447468,1644709463
,,,
-1.750651804,0,-0.824297894,1644709463
,,,
-1.62504451,0,-0.910652938,1644709463
,,,
-1.648595788,0,-0.730092424,1644709463
,,,
-1.813455451,0,-0.902802453,1644709463
,,,
-1.593642687,0,-1.044110718,1644709463
,,,
-1.719249981,0,-0.777195159,1644709463
,,,
-1.640745362,0,-1.161867585,1644709463
,,,
-1.711399435,0,-1.138316188,1644709463
,,,
-1.899810375,0.436795213,-1.02055932,1644709463
,,,
-1.782053627,0.358291433,-0.997007923,1644709463
,,,
-1.789904053,0.421092923,-1.02055932,1644709463
,,,
-1.829156303,0.468195957,-1.11476479,1644709463
,,,
-1.805604905,0,-0.997007923,1644709463
,,,
-1.727100407,0.358291433,-0.894952027,1644709463
,,,
-1.774203082,0,-1.012708894,1644709463
,,,
-1.837006728,0.491749393,-0.989157497,1644709463
,,,
-1.766352656,0.413245613,-0.965606099,1644709463
,,,
-1.750651804,0.381841033,-0.965606099,1644709463
,,,
-1.687848157,0.319039544,-1.044110718,1644709463
,,,
-1.884109523,0.366142578,-1.028409746,1644709463
,,,
-1.679997612,0,-1.075512541,1644709463
,,,
-1.782053627,0.468195957,-0.957755673,1644709463
,,,
-1.687848157,0,-1.02055932,1644709463
,,,
-1.719249981,0.436795213,-1.012708894,1644709463
,,,
-1.593642687,0.405394468,-0.973456585,1644709463
,,,
-1.640745362,0.405394468,-1.075512541,1644709463
,,,
-1.648595788,0,-1.075512541,1644709463
,,,
-1.837006728,0.334737998,-0.808596982,1644709463
,,,
-1.797754479,0,-0.981307011,1644709463
,,,
-1.62504451,0,-0.800746556,1644709463
,,,
-1.837006728,0,-0.777195159,1644709463
,,,
-1.75850223,0,-0.612335616,1644709463
,,,
-1.750651804,0,-0.847849292,1644709463
,,,
-1.75850223,0,-0.745793336,1644709463
,,,
-1.734950832,0,-0.675139263,1644709463
,,,
-1.766352656,0,-0.60448513,1644709463
,,,
-1.75850223,0,-0.706541086,1644709463
,,,
-1.797754479,0,-0.675139263,1644709463
,,,
-1.609343539,0,-0.580933793,1644709463
,,,
-1.750651804,0,-0.753643821,1644709463
,,,
-1.742801258,0,-0.565232881,1644709463
,,,
-1.66429676,0.483898247,-0.612335616,1644709463
,,,
-1.57009129,0.311188399,-0.6986906,1644709463
,,,
-1.601493113,0.476047102,-0.83214838,1644709463
,,,
-1.640745362,0.491749393,-0.73794291,1644709463
,,,
-1.734950832,0.421092923,-0.769344733,1644709463
,,,
-1.766352656,0.342589143,-0.659438351,1644709463
,,,
-1.687848157,0.326890689,-0.714391512,1644709463
,,,
-1.695698583,0,-0.73794291,1644709463
,,,
-1.75850223,0,-0.447476013,1644709463
,,,
-1.789904053,0,-0.51027966,1644709463
,,,
-1.62504451,0,-0.64373744,1644709463
,,,
-1.742801258,0,-0.659438351,1644709463
,,,
-1.805604905,0,-0.588784219,1644709463
,,,
-1.648595788,0.428944068,-0.620186042,1644709463
,,,
-1.797754479,0.373993723,-0.769344733,1644709463
,,,
-1.719249981,0.358291433,-0.651587865,1644709463
,,,
-1.632894936,0,-0.942054762,1644709463
,,,
-1.679997612,0,-0.855699717,1644709463
,,,
-1.640745362,0.326890689,-0.942054762,1644709463
,,,
-1.719249981,0,-0.855699717,1644709463
,,,
-1.727100407,0.358291433,-0.83214838,1644709463
,,,
-1.891959949,0,-1.091213393,1644709463
,,,
-1.687848157,0.350440288,-0.957755673,1644709463
,,,
-1.837006728,0,-0.808596982,1644709463
,,,
-1.829156303,0.311188399,-0.918503364,1644709463
,,,
-1.695698583,0,-0.918503364,1644709463
,,,
-1.8527077,0,-0.824297894,1644709463
,,,
-1.703549009,0,-0.92635385,1644709463
,,,
-1.782053627,0,-0.981307011,1644709463
,,,
-1.774203082,0,-0.934204276,1644709463
,,,
-1.75850223,0,-0.918503364,1644709463
,,,
-1.703549009,0,-0.902802453,1644709463
,,,
-1.8527077,0,-1.02055932,1644709463
,,,
-1.868408552,0,-0.879251115,1644709463
,,,
-1.734950832,0,-0.989157497,1644709463
,,,
-1.734950832,0,-1.028409746,1644709463
,,,
-1.75850223,0,-1.05981157,1644709463
,,,
-1.742801258,0,-0.965606099,1644709463
,,,
-1.640745362,0,-1.075512541,1644709463
,,,
-1.687848157,0,-1.05981157,1644709463
,,,
-1.62504451,0,-1.11476479,1644709463
,,,
-1.53083904,0.319039544,-1.146166614,1644709463
,,,
-1.844857274,0.358291433,-1.083362967,1644709463
,,,
-1.766352656,0.342589143,-1.02055932,1644709463
,,,
-1.789904053,0,-1.091213393,1644709463
,,,
-1.734950832,0,-0.965606099,1644709463
,,,
-1.648595788,0,-0.934204276,1644709463
,,,
-1.742801258,0.319039544,-1.083362967,1644709463
,,,
-1.719249981,0.319039544,-0.981307011,1644709463
,,,
-1.782053627,0,-1.11476479,1644709463
,,,
-1.844857274,0.421092923,-0.863550203,1644709463
,,,
-1.891959949,0.476047102,-1.067662115,1644709463
,,,
-1.766352656,0.421092923,-1.099063939,1644709463
,,,
-1.868408552,0,-1.075512541,1644709463
,,,
-1.868408552,0,-0.989157497,1644709463
,,,
-1.837006728,0.326890689,-1.02055932,1644709463
,,,
-1.805604905,0.507447847,-0.894952027,1644709463
,,,
-1.719249981,0.389692178,-1.044110718,1644709463
,,,
-1.844857274,0,-0.934204276,1644709463
,,,
-1.782053627,0,-0.989157497,1644709463
,,,
-1.734950832,0.358291433,-0.918503364,1644709463
,,,
-1.703549009,0.452497503,-0.997007923,1644709463
,,,
-1.648595788,0.303337254,-0.847849292,1644709463
,,,
-1.727100407,0,-0.957755673,1644709463
,,,
-1.672147186,0,-0.675139263,1644709463
,,,
-1.75850223,0,-0.839998806,1644709463
,,,
-1.766352656,0,-0.855699717,1644709463
,,,
-1.797754479,0,-0.863550203,1644709463
,,,
-1.750651804,0,-0.667288777,1644709463
,,,
-1.672147186,0,-0.745793336,1644709463
,,,
-1.711399435,0,-0.714391512,1644709463
,,,
-1.656446334,0,-0.887101541,1644709463
,,,
-1.750651804,0,-0.73794291,1644709463
,,,
-1.829156303,0,-0.667288777,1644709463
,,,
-1.766352656,0,-0.651587865,1644709463
,,,
-1.648595788,0,-0.824297894,1644709463
,,,
-1.750651804,0,-0.855699717,1644709463
,,,
-1.774203082,0,-0.745793336,1644709463
,,,
-1.915511347,0,-0.816447468,1644709463
,,,
-1.656446334,0.303337254,-0.902802453,1644709463
,,,
-1.719249981,0.460348648,-0.918503364,1644709463
,,,
-1.774203082,0,-0.918503364,1644709463
,,,
-1.711399435,0,-0.792896071,1644709463
,,,
-1.829156303,0.421092923,-0.785045645,1644709463
,,,
-1.860558126,0.413245613,-0.863550203,1644709463
,,,
-1.75850223,0.397543323,-0.949905188,1644709463
,,,
-1.766352656,0.319039544,-0.83214838,1644709463
,,,
-1.719249981,0.311188399,-0.761494247,1644709463
,,,
-1.703549009,0,-0.894952027,1644709463
,,,
-1.75850223,0.334737998,-0.965606099,1644709463
,,,
-1.766352656,0.397543323,-0.722241998,1644709463
,,,
-1.719249981,0,-0.894952027,1644709463
,,,
-1.766352656,0,-0.949905188,1644709463
,,,
-1.656446334,0,-0.745793336,1644709463
,,,
-1.719249981,0,-0.863550203,1644709463
,,,
-1.695698583,0,-0.73794291,1644709463
,,,
-1.546539892,0,-0.871400629,1644709463
,,,
-1.679997612,0,-0.824297894,1644709463
,,,
-1.562240864,0,-1.004858409,1644709463
,,,
-1.695698583,0,-1.012708894,1644709463
,,,
-1.577941715,0,-1.091213393,1644709463
,,,
-1.601493113,0,-1.138316188,1644709463
,,,
-1.719249981,0.311188399,-1.177568437,1644709463
,,,
-1.62504451,0.366142578,-1.028409746,1644709463
,,,
-1.774203082,0.350440288,-1.044110718,1644709463
,,,
-1.687848157,0.381841033,-1.169718011,1644709463
,,,
-1.734950832,0,-1.106914365,1644709463
,,,
-1.821305877,0,-1.012708894,1644709463
,,,
-1.774203082,0.311188399,-1.02055932,1644709463
,,,
-1.75850223,0.319039544,-0.981307011,1644709463
,,,
-1.766352656,0.350440288,-1.138316188,1644709463
,,,
-1.813455451,0.358291433,-1.130465762,1644709463
,,,
-1.703549009,0,-1.130465762,1644709463
,,,
-1.774203082,0,-0.887101541,1644709463
,,,
-1.727100407,0,-1.004858409,1644709463
,,,
-1.727100407,0,-1.11476479,1644709463
,,,
-1.711399435,0.334737998,-1.091213393,1644709463
,,,
-1.679997612,0,-1.122615216,1644709463
,,,
-1.742801258,0,-0.949905188,1644709463
,,,
-1.656446334,0,-1.02055932,1644709463
,,,
-1.593642687,0,-1.02055932,1644709463
,,,
-1.687848157,0,-0.981307011,1644709463
,,,
-1.734950832,0,-0.902802453,1644709463
,,,
-1.53083904,0,-0.887101541,1644709463
,,,
-1.593642687,0,-0.706541086,1644709463
,,,
-1.66429676,0,-0.800746556,1644709463
,,,
-1.672147186,0,-0.816447468,1644709463
,,,
-1.648595788,0,-0.777195159,1644709463
,,,
-1.609343539,0.311188399,-0.690840175,1644709463
,,,
-1.679997612,0,-0.745793336,1644709463
,,,
-1.703549009,0,-0.816447468,1644709463
,,,
-1.844857274,0,-0.769344733,1644709463
,,,
-1.821305877,0,-0.824297894,1644709463
,,,
-1.844857274,0,-0.722241998,1644709463
,,,
-1.750651804,0.397543323,-0.745793336,1644709463
,,,
-1.868408552,0.468195957,-0.92635385,1644709463
,,,
-1.742801258,0.460348648,-0.706541086,1644709463
,,,
-1.75850223,0.350440288,-0.808596982,1644709463
,,,
-1.62504451,0.303337254,-0.847849292,1644709463
,,,
-1.632894936,0,-0.808596982,1644709463
,,,
-1.601493113,0.366142578,-0.816447468,1644709463
,,,
-1.577941715,0.326890689,-0.981307011,1644709463
,,,
-1.632894936,0.381841033,-0.690840175,1644709463
,,,
-1.774203082,0,-0.769344733,1644709463
,,,
-1.672147186,0,-0.667288777,1644709463
,,,
-1.734950832,0,-0.730092424,1644709463
,,,
-1.609343539,0,-0.675139263,1644709463
,,,
-1.609343539,0,-0.565232881,1644709463
,,,
-1.640745362,0,-0.730092424,1644709463
,,,
-1.577941715,0,-0.706541086,1644709463
,,,
-1.782053627,0,-0.690840175,1644709463
,,,
-1.617193965,0,-0.714391512,1644709463
,,,
-1.53083904,0,-0.777195159,1644709463
,,,
-1.617193965,0,-0.596634704,1644709463
,,,
-1.711399435,0,-0.612335616,1644709463
,,,
-1.593642687,0,-0.816447468,1644709463
,,,
-1.703549009,0,-0.745793336,1644709463
,,,
-1.844857274,0,-0.730092424,1644709463
,,,
-1.907660921,0.460348648,-0.863550203,1644709463
,,,
-1.797754479,0.350440288,-1.05981157,1644709463
,,,
-1.750651804,0.326890689,-0.918503364,1644709463
,,,
-1.789904053,0,-0.973456585,1644709463
,,,
-1.656446334,0,-1.099063939,1644709463
,,,
-1.703549009,0,-0.887101541,1644709463
,,,
-1.868408552,0,-1.02055932,1644709463
,,,
-1.766352656,0.319039544,-1.051961144,1644709463
,,,
-1.742801258,0,-0.989157497,1644709463
,,,
-1.766352656,0,-1.177568437,1644709463
,,,
-1.632894936,0,-1.05981157,1644709463
,,,
-1.774203082,0,-1.028409746,1644709463
,,,
-1.813455451,0,-0.957755673,1644709463
,,,
-1.719249981,0,-1.028409746,1644709464
,,,
-1.727100407,0,-1.083362967,1644709464
,,,
-1.774203082,0,-1.004858409,1644709464
,,,
-1.734950832,0,-1.075512541,1644709464
,,,
-1.711399435,0,-1.051961144,1644709464
,,,
-1.648595788,0,-1.201119835,1644709464
,,,
-1.648595788,0,-0.902802453,1644709464
,,,
-1.750651804,0.350440288,-0.981307011,1644709464
,,,
-1.711399435,0,-1.083362967,1644709464
,,,
-1.703549009,0.428944068,-0.918503364,1644709464
,,,
-1.734950832,0,-1.004858409,1644709464
,,,
-1.884109523,0,-0.997007923,1644709464
,,,
-1.829156303,0.499600538,-1.169718011,1644709464
,,,
-1.750651804,0.342589143,-1.146166614,1644709464
,,,
-1.742801258,0,-0.824297894,1644709464
,,,
-1.907660921,0,-0.816447468,1644709464
,,,
-1.884109523,0,-0.761494247,1644709464
,,,
-1.57009129,0,-0.949905188,1644709464
,,,
-1.727100407,0,-0.612335616,1644709464
,,,
-1.695698583,0,-0.588784219,1644709464
,,,
-1.66429676,0,-0.682989689,1644709464
,,,
-1.719249981,0,-0.659438351,1644709464
,,,
-1.719249981,0,-0.745793336,1644709464
,,,
-1.750651804,0,-0.824297894,1644709464
,,,
-1.703549009,0,-0.83214838,1644709464
,,,
-1.860558126,0,-0.722241998,1644709464
,,,
-1.774203082,0,-0.839998806,1644709464
,,,
-1.62504451,0,-0.690840175,1644709464
,,,
-1.601493113,0,-0.887101541,1644709464
,,,
-1.656446334,0,-0.682989689,1644709464
,,,
-1.609343539,0,-0.808596982,1644709464
,,,
-1.640745362,0,-0.863550203,1644709464
,,,
-1.766352656,0,-0.769344733,1644709464
,,,
-1.62504451,0,-0.769344733,1644709464
,,,
-1.617193965,0,-0.73794291,1644709464
,,,
-1.648595788,0.334737998,-0.73794291,1644709464
,,,
-1.891959949,0.389692178,-0.871400629,1644709464
,,,
-1.797754479,0.389692178,-0.871400629,1644709464
,,,
-1.687848157,0,-0.965606099,1644709464
,,,
-1.703549009,0,-0.777195159,1644709464
,,,
-1.907660921,0,-0.981307011,1644709464
,,,
-1.734950832,0.499600538,-0.942054762,1644709464
,,,
-1.703549009,0.311188399,-0.839998806,1644709464
,,,
-1.931212199,0,-1.051961144,1644709464
,,,
-1.695698583,0.358291433,-0.934204276,1644709464
,,,
-1.789904053,0,-0.887101541,1644709464
,,,
-1.648595788,0,-0.910652938,1644709464
,,,
-1.672147186,0,-0.902802453,1644709464
,,,
-1.617193965,0,-0.918503364,1644709464
,,,
-1.766352656,0,-0.769344733,1644709464
,,,
-1.66429676,0,-0.957755673,1644709464
,,,
-1.617193965,0,-0.722241998,1644709464
,,,
-1.648595788,0,-0.910652938,1644709464
,,,
-1.66429676,0,-0.83214838,1644709464
,,,
-1.648595788,0,-0.863550203,1644709464
,,,
-1.75850223,0.358291433,-0.808596982,1644709464
,,,
-1.813455451,0,-0.863550203,1644709464
,,,
-1.837006728,0,-0.730092424,1644709464
,,,
-1.774203082,0,-1.051961144,1644709464
,,,
-1.687848157,0,-0.871400629,1644709464
,,,
-1.782053627,0,-0.92635385,1644709464
,,,
-1.891959949,0,-1.177568437,1644709464
,,,
-1.719249981,0,-1.044110718,1644709464
,,,
-1.66429676,0,-1.365979378,1644709464
,,,
-1.656446334,0,-1.350278526,1644709464
,,,
-1.585792141,0,-1.177568437,1644709464
,,,
-1.538689466,0,-1.193269409,1644709464
,,,
-1.562240864,0,-1.138316188,1644709464
,,,
-1.679997612,0.326890689,-1.232521658,1644709464
,,,
-1.648595788,0.303337254,-1.161867585,1644709464
,,,
-1.75850223,0.326890689,-1.138316188,1644709464
,,,
-1.734950832,0.421092923,-0.949905188,1644709464
,,,
-1.876259098,0.397543323,-0.989157497,1644709464
,,,
-1.750651804,0.491749393,-1.083362967,1644709464
,,,
-1.884109523,0.703711131,-1.067662115,1644709464
,,,
-1.734950832,0.523150137,-1.15401704,1644709464
,,,
-1.907660921,0.397543323,-0.934204276,1644709464
,,,
-1.774203082,0.476047102,-0.997007923,1644709464
,,,
-1.727100407,0.397543323,-1.193269409,1644709464
,,,
-1.750651804,0.452497503,-1.083362967,1644709464
,,,
-1.601493113,0.444646358,-1.083362967,1644709464
,,,
-1.75850223,0,-0.887101541,1644709464
,,,
-1.577941715,0.366142578,-1.067662115,1644709464
,,,
-1.734950832,0,-1.067662115,1644709464
,,,
-1.679997612,0,-1.106914365,1644709464
,,,
-1.75850223,0,-0.894952027,1644709464
,,,
-1.593642687,0,-0.824297894,1644709464
,,,
-1.805604905,0,-0.800746556,1644709464
,,,
-1.656446334,0,-0.949905188,1644709464
,,,
-1.719249981,0,-0.918503364,1644709464
,,,
-1.719249981,0,-0.714391512,1644709464
,,,
-1.923361773,0,-0.918503364,1644709464
,,,
-1.648595788,0,-0.675139263,1644709464
,,,
-1.703549009,0,-0.769344733,1644709464
,,,
-1.805604905,0,-0.83214838,1644709464
,,,
-1.876259098,0,-0.706541086,1644709464
,,,
-1.66429676,0,-0.745793336,1644709464
,,,
-1.632894936,0,-0.675139263,1644709464
,,,
-1.805604905,0,-0.745793336,1644709464
,,,
-1.75850223,0.366142578,-0.910652938,1644709464
,,,
-1.789904053,0.303337254,-0.785045645,1644709464
,,,
-1.829156303,0,-0.800746556,1644709464
,,,
-1.876259098,0.421092923,-1.02055932,1644709464
,,,
-1.66429676,0.405394468,-0.879251115,1644709464
,,,
-1.727100407,0.483898247,-0.894952027,1644709464
,,,
-1.632894936,0.397543323,-0.855699717,1644709464
,,,
-1.687848157,0.491749393,-0.92635385,1644709464
,,,
-1.695698583,0.711562276,-0.682989689,1644709464
,,,
-1.703549009,0.452497503,-0.761494247,1644709464
,,,
-1.813455451,0.342589143,-0.800746556,1644709464
,,,
-1.750651804,0,-0.64373744,1644709464
,,,
-1.711399435,0,-0.620186042,1644709464
,,,
-1.601493113,0,-0.64373744,1644709464
,,,
-1.695698583,0,-0.612335616,1644709464
,,,
-1.727100407,0,-0.588784219,1644709464
,,,
-1.672147186,0,-0.620186042,1644709464
,,,
-1.915511347,0,-0.60448513,1644709464
,,,
-1.703549009,0,-0.431775102,1644709464
,,,
-1.774203082,0,-0.400373278,1644709464
,,,
-1.632894936,0,-0.431775102,1644709464
,,,
-1.577941715,0,-0.447476013,1644709464
,,,
-1.554390318,0,-0.455326469,1644709464
,,,
-1.711399435,0,-0.361120999,1644709464
,,,
-1.577941715,0,-0.51027966,1644709464
,,,
-1.719249981,0,-0.408223734,1644709464
,,,
-1.66429676,0,-0.384672367,1644709464
,,,
-1.860558126,0,-0.494578748,1644709464
,,,
-1.66429676,0,-0.667288777,1644709464
,,,
-1.601493113,0,-0.518130146,1644709464
,,,
-1.648595788,0.311188399,-0.471027381,1644709464
,,,
-1.868408552,0.452497503,-0.745793336,1644709464
,,,
-1.805604905,0,-0.792896071,1644709464
,,,
-1.711399435,0,-0.64373744,1644709464
,,,
-1.821305877,0,-0.706541086,1644709464
,,,
-1.782053627,0,-0.83214838,1644709464
,,,
-1.695698583,0,-0.753643821,1644709464
,,,
-1.868408552,0,-1.012708894,1644709464
,,,
-1.750651804,0,-0.808596982,1644709464
,,,
-1.923361773,0,-1.044110718,1644709464
,,,
-1.899810375,0,-0.887101541,1644709464
,,,
-1.585792141,0,-1.05981157,1644709464
,,,
-1.656446334,0,-1.02055932,1644709464
,,,
-1.813455451,0,-1.287474879,1644709464
,,,
-1.844857274,0,-1.146166614,1644709464
,,,
-1.774203082,0,-1.256073056,1644709464
,,,
-1.774203082,0,-1.24822251,1644709464
,,,
-1.837006728,0,-1.318876702,1644709464
,,,
-1.687848157,0.342589143,-1.475885819,1644709464
,,,
-1.562240864,0.421092923,-1.515138069,1644709464
,,,
-1.703549009,0.640905806,-1.428783024,1644709464
,,,
-1.601493113,0.656608096,-1.287474879,1644709464
,,,
-1.829156303,0.578104317,-1.57009129,1644709464
,,,
-1.679997612,0.444646358,-1.554390318,1644709464
,,,
-1.711399435,0.578104317,-1.491586671,1644709464
,,,
-1.695698583,0.562402027,-1.499437097,1644709464
,,,
-1.62504451,0.633058497,-1.444483996,1644709464
,,,
-1.609343539,0.373993723,-1.483736245,1644709464
,,,
-1.672147186,0.593802772,-1.311026157,1644709464
,,,
-1.884109523,0.460348648,-1.397381201,1644709464
,,,
-1.75850223,0.499600538,-1.271773907,1644709464
,,,
-1.844857274,0,-1.067662115,1644709464
,,,
-1.876259098,0.413245613,-1.075512541,1644709464
,,,
-1.868408552,0,-1.161867585,1644709464
,,,
-1.742801258,0,-0.918503364,1644709464
,,,
-1.782053627,0.397543323,-0.957755673,1644709464
,,,
-1.742801258,0,-1.130465762,1644709464
,,,
-1.687848157,0,-0.973456585,1644709464
,,,
-1.766352656,0,-0.871400629,1644709464
,,,
-1.876259098,0,-0.824297894,1644709464
,,,
-1.632894936,0.358291433,-0.918503364,1644709464
,,,
-1.538689466,0,-0.863550203,1644709464
,,,
-1.719249981,0,-0.973456585,1644709464
,,,
-1.656446334,0.303337254,-0.989157497,1644709464
,,,
-1.703549009,0,-0.847849292,1644709464
,,,
-1.711399435,0,-0.855699717,1644709464
,,,
-1.648595788,0,-0.902802453,1644709464
,,,
-1.774203082,0,-0.792896071,1644709464
,,,
-1.640745362,0,-0.777195159,1644709464
,,,
-1.672147186,0,-0.83214838,1644709464
,,,
-1.829156303,0,-0.871400629,1644709464
,,,
-1.837006728,0,-0.824297894,1644709464
,,,
-1.679997612,0,-0.753643821,1644709464
,,,
-1.805604905,0,-0.879251115,1644709464
,,,
-1.75850223,0,-0.871400629,1644709464
,,,
-1.782053627,0,-0.659438351,1644709464
,,,
-1.648595788,0,-0.902802453,1644709464
,,,
-1.734950832,0,-0.973456585,1644709464
,,,
-1.75850223,0,-0.769344733,1644709464
,,,
-1.672147186,0,-1.130465762,1644709464
,,,
-1.617193965,0.326890689,-1.389530775,1644709464
,,,
-1.538689466,0,-1.02055932,1644709464
,,,
-2.135324231,0,-0.847849292,1644709464
,,,
-2.033268215,-0.473857066,-0.934204276,1644709464
,,,
-2.26878195,-1.16469838,-1.334577554,1644709464
,,,
-2.276632376,-0.976286241,-1.876259098,1644709464
,,,
-1.899810375,0,-0.902802453,1644709464
,,,
-1.774203082,0,-0.92635385,1644709464
,,,
-1.679997612,0,0.368971455,1644709464
,,,
-1.656446334,-1.714228671,0,1644709465
,,,
-1.703549009,-2.69553742,-1.05981157,1644709465
,,,
-2.417940521,-2.687686275,-1.727100407,1644709465
,,,
-1.232521658,-5.00357078,-1.303175731,1644709465
,,,
-2.700557052,-2.813293089,-2.519996537,1644709465
,,,
-2.519996537,-1.306005566,-2.731958755,1644709465
,,,
-2.284482802,-1.651425264,-2.849715623,1644709465
,,,
-2.386538818,-5.191981001,-3.42279887,1644709465
,,,
-2.857566049,-18.82822422,-6.091953978,1644709465
,,,
-2.190277212,0,-7.567839798,1644709465
,,,
-4.364853572,20.94218721,-0.690840175,1644709465
,,,
-2.394389244,-11.88842089,-8.651202405,1644709465
,,,
1.287474879,-27.4166237,12.86689812,1644709465
,,,
-22.75847309,-23.59345119,-8.588398998,1644709465
,,,
-8.690455254,-37.84987973,-11.55587197,1644709465
,,,
-11.93269337,21.37396183,-11.39886249,1644709465
,,,
0.839998806,-9.501881832,-6.884850109,1644709465
,,,
-6.672887891,-38.68987889,-7.348026914,1644709465
,,,
3.548406163,-27.58148288,7.693447091,1644709465
,,,
-6.696439408,-38.94894367,-22.22464126,1644709465
,,,
1.138316188,-31.12988928,-38.1296669,1644709465
,,,
8.816062068,-72.58029952,-13.98166291,1644709465
,,,
3.862424397,-25.12429023,-37.44667482,1644709465
,,,
9.090828172,-39.45922351,-11.00633976,1644709465
,,,
4.090087947,-42.79566721,-12.59213202,1644709465
,,,
-0.337569631,-49.50780747,-42.35321089,1644709465
,,,
1.703549009,-44.84463676,-14.83736197,1644709465
,,,
3.846723546,-16.95981567,-9.970079707,1644709465
,,,
0.808596982,0.829317945,-27.0840743,1644709465
,,,
0,-28.70409834,-40.36704763,1644709465
,,,
7.261671989,-16.42598479,0.486728293,1644709465
,,,
-1.05981157,-20.21775511,-71.99653409,1644709465
,,,
1.373829803,-17.39159029,-21.99697915,1644709465
,,,
2.394389244,-5.36469085,8.973071544,1644709465
,,,
2.158875508,1.575111521,-1.122615216,1644709465
,,,
1.813455451,-13.96879214,-20.42688822,1644709465
,,,
1.208970261,-4.689551827,-2.68485596,1644709465
,,,
2.253080858,-15.53103192,-10.3154994,1644709465
,,,
1.365979378,2.053989177,-28.75622244,1644709465
,,,
8.753258661,1.755672514,-32.9954668,1644709465
,,,
5.636627839,-1.800583595,-3.446350387,1644709465
,,,
5.157749702,1.496607741,-5.04784326,1644709465
,,,
7.512886577,4.291369903,-5.65232869,1644709465
,,,
4.404105941,4.048003585,-40.85377643,1644709465
,,,
4.961488336,0.476047102,-13.38502767,1644709465
,,,
15.24558604,10.9721075,-7.065410623,1644709465
,,,
10.70017195,24.1294721,-26.56594475,1644709465
,,,
15.15923111,14.81883105,2.103922287,1644709465
,,,
11.79138522,22.65358724,-12.73344017,1644709465
,,,
6.044851423,10.96425636,-55.54982738,1644709465
,,,
9.247837649,16.26331516,61.36701573,1644709465
,,,
11.28895605,42.97057093,-29.14874517,1644709465
,,,
10.9042835,36.78440561,-45.68180489,1644709465
,,,
1.012708894,33.51076579,-58.94907785,1644709465
,,,
4.529713234,15.23490721,-21.73006323,1644709465
,,,
0.620186042,32.843476,73.77073945,1644709465
,,,
7.230270286,40.00309892,-7.889708457,1644709465
,,,
12.64708524,44.08533381,-7.607092167,1644709465
,,,
-1.648595788,52.86999417,-16.61941656,1644709465
,,,
5.149899516,41.33767084,-0.83214838,1644709465
,,,
3.697564974,13.25659126,-43.46012645,1644709465
,,,
4.105788798,69.77987241,-3.328593519,1644709465
,,,
1.271773907,37.31823745,3.823172268,1644709465
,,,
10.40185433,19.85882508,-0.60448513,1644709465
,,,
2.386538818,32.7728272,0,1644709465
,,,
-0.910652938,25.1421816,0,1644709465
,,,
-2.49644502,27.05769222,4.937936819,1644709465
,,,
-1.57009129,24.50629638,11.76783371,1644709465
,,,
3.626910902,24.938071,-8.768959992,1644709465
,,,
0.918503364,5.382583176,11.0848445,1644709465
,,,
4.733825266,4.393427118,-1.224671232,1644709465
,,,
2.284482802,16.38107083,3.171584283,1644709465
,,,
3.501303608,12.14182455,-0.345420087,1644709465
,,,
9.381295608,7.321647239,-7.968213196,1644709465
,,,
-2.394389244,2.658473649,1.734950832,1644709465
,,,
4.843731708,12.8012632,1.860558126,1644709465
,,,
-1.279624333,1.520157341,6.680738556,1644709465
,,,
-3.242238355,-15.09140616,5.840739391,1644709465
,,,
3.988031691,-8.952349622,2.292333228,1644709465
,,,
2.339436023,-3.574787037,0,1644709465
,,,
4.482610679,7.423700618,3.053827415,1644709465
,,,
-0.60448513,20.9814391,7.253821803,1644709465
,,,
6.358869417,-5.749364355,-0.816447468,1644709465
,,,
6.131206347,1.025581229,3.179434709,1644709465
,,,
3.736817104,2.705576683,2.17457636,1644709465
,,,
4.427657458,1.457355851,2.480744168,1644709465
,,,
4.961488336,0,2.096071861,1644709465
,,,
3.917377618,0,2.072520584,1644709465
,,,
3.783919899,-1.03124042,2.182426786,1644709465
,,,
4.247096944,-0.968437013,2.166725934,1644709465
,,,
3.972330839,-1.211799497,2.221679155,1644709465
,,,
3.862424397,-1.761331706,2.04111864,1644709465
,,,
4.498311531,-1.054791938,1.146166614,1644709465
,,,
4.262797795,-0.552362764,1.978314994,1644709465
,,,
4.042984912,0,1.797754479,1644709465
,,,
3.854573971,-9.423378052,1.185418863,1644709465
,,,
5.322609365,-3.166563932,2.355136874,1644709465
,,,
3.38354674,-7.531417024,1.884109523,1644709465
,,,
2.08037101,14.9915409,6.248963455,1644709465
,,,
4.050835577,0.86071869,1.515138069,1644709465
,,,
1.789904053,-5.129177594,1.970464568,1644709465
,,,
4.372704237,-3.928057879,1.860558126,1644709465
,,,
0,11.23117227,8.188026079,1644709465
,,,
2.998874194,-14.40841791,0.847849292,1644709465
,,,
3.446350387,9.150802943,1.75850223,1644709465
,,,
5.016441557,1.951931963,3.312892668,1644709465
,,,
2.025417789,11.2939776,4.325601202,1644709465
,,,
3.556256829,2.509317235,3.399247592,1644709465
,,,
3.650462179,0.766516456,2.158875508,1644709465
,,,
3.791770325,0.381841033,2.347286449,1644709465
,,,
3.7054154,0.829317945,2.614201887,1644709465
,,,
3.524854886,0,2.724108329,1644709465
,,,
3.728966678,0,2.574949758,1644709465
,,,
3.752518195,0,2.692706626,1644709465
,,,
3.650462179,0,2.983173342,1644709465
,,,
3.603359384,0,2.943921213,1644709465
,,,
3.556256829,-0.411053659,2.975322916,1644709465
,,,
3.367845649,-0.560211991,2.786911976,1644709465
,,,
3.297191576,-0.481708211,2.841865197,1644709465
,,,
3.399247592,-0.599463881,2.692706626,1644709465
,,,
3.328593519,-0.505259729,2.716257903,1644709465
,,,
3.391397166,-0.481708211,2.629902979,1644709465
,,,
3.556256829,-0.623015398,2.425790947,1644709465
,,,
3.446350387,-0.37180177,2.582800184,1644709465
,,,
3.556256829,0,2.692706626,1644709465
,,,
3.752518195,0,2.68485596,1644709465
,,,
3.689714548,0.476047102,2.512146111,1644709465
,,,
3.587658533,0,2.794762402,1644709465
,,,
3.7054154,0,2.731958755,1644709465
,,,
3.815321842,0.695859986,2.802612828,1644709465
,,,
3.273640299,0,2.68485596,1644709465
,,,
3.579808107,0,2.629902979,1644709465
,,,
3.524854886,0,2.645603831,1644709465
,,,
3.807471416,0.397543323,2.519996537,1644709465
,,,
5.597375469,-8.787490919,0.92635385,1644709465
,,,
6.256813641,-6.714970814,1.460184848,1644709465
,,,
5.432515807,6.042021827,2.111772713,1644709465
,,,
8.329334225,-5.325438961,0.651587865,1644709465
,,,
-2.417940521,12.43229391,6.42952349,1644709465
,,,
4.514012383,-3.135161269,0,1644709465
,,,
4.702423563,-10.43608563,1.687848157,1644709465
,,,
5.620926507,-3.354974153,2.857566049,1644709465
,,,
2.347286449,2.815485043,4.042984912,1644709465
,,,
4.184293057,0,2.284482802,1644709465
,,,
3.265789873,1.080531574,3.077378932,1644709465
,,,
3.666163031,0,3.187285374,1644709465
,,,
3.689714548,0.617356207,2.951771639,1644709465
,,,
3.642611753,0,3.022425711,1644709465
,,,
3.595508958,0,2.857566049,1644709465
,,,
3.658312605,0,3.179434709,1644709465
,,,
3.736817104,0,2.77906155,1644709465
,,,
3.564107255,0.656608096,3.030276137,1644709465
,,,
3.823172268,1.041279684,2.802612828,1644709465
,,,
3.61120981,0.617356207,2.763360698,1644709465
,,,
3.854573971,1.371000927,2.991023768,1644709465
,,,
3.862424397,1.292497148,2.928220121,1644709465
,,,
3.674013457,1.363149782,2.794762402,1644709465
,,,
3.446350387,1.339596347,2.677005534,1644709465
,,,
4.129339836,1.700718335,3.305042002,1644709465
,,,
3.579808107,0.546703572,2.739809181,1644709465
,,,
3.728966678,1.677168735,3.179434709,1644709465
,,,
3.697564974,2.901839967,3.069528506,1644709465
,,,
4.733825266,3.600530508,3.524854886,1644709465
,,,
12.23101099,11.98481699,3.674013457,1644709465
,,,
5.675879728,12.4715458,1.263923482,1644709465
,,,
1.994015845,13.77472081,4.035134726,1644709465
,,,
2.771211124,15.21135378,5.448216659,1644709465
,,,
2.033268215,11.61584386,8.305782707,1644709465
,,,
1.876259098,21.38181297,6.178308903,1644709465
,,,
2.527846963,17.76275346,8.808211882,1644709465
,,,
5.762235132,15.24275452,6.217561272,1644709465
,,,
5.573823952,21.79788531,1.66429676,1644709465
,,,
3.658312605,22.59078192,6.602233818,1644709465
,,,
7.018308068,26.68872293,5.149899516,1644709465
,,,
5.864290908,35.22216966,5.055693926,1644709465
,,,
16.83922944,30.9515188,4.498311531,1644709465
,,,
9.726715306,31.53245368,5.683730394,1644709465
,,,
6.829896888,32.25469765,4.843731708,1644709465
,,,
5.636627839,31.16348054,8.140923045,1644709465
,,,
4.804479339,40.31711404,-3.501303608,1644709465
,,,
1.036260292,39.24160306,-6.29606601,1644709465
,,,
-2.213828729,9.849493483,-2.151025082,1644709465
,,,
-4.097938133,23.76835011,-4.898684929,1644709465
,,,
-3.650462179,26.58666571,-5.97419735,1644709465
,,,
-7.308775024,18.65770345,-24.21080644,1644709465
,,,
-3.799620751,18.10817316,-22.90763142,1644709465
,,,
-3.077378932,8.295101008,10.37045263,1644709465
,,,
0.887101541,2.823332352,-14.22502732,1644709465
,,,
2.582800184,0.758665311,-3.603359384,1644709465
,,,
7.379429097,-5.87497117,0,1644709466
,,,
8.721856957,-5.176280629,-8.729707143,1644709466
,,,
7.748400312,-4.697402972,-16.20334231,1644709466
,,,
13.49493411,-12.21814021,-11.02989128,1644709466
,,,
11.29680624,-5.694410176,-31.59808572,1644709466
,,,
5.958496498,-14.1650535,-11.85418863,1644709466
,,,
1.099063939,-19.97439071,-18.01679764,1644709466
,,,
-4.239246278,-16.15906887,-5.550272435,1644709466
,,,
-2.103922287,-25.51681296,-14.46839076,1644709466
,,,
-4.097938133,-25.0065336,-12.34091743,1644709466
,,,
-1.899810375,-29.80316227,-14.07586803,1644709466
,,,
-3.375696314,-37.22184326,-8.227277969,1644709466
,,,
-0.565232881,-34.32502508,-23.29230301,1644709466
,,,
0,-33.02184929,-5.699431246,1644709466
,,,
0,-34.49773517,-20.59959806,1644709466
,,,
0.667288777,-34.33287551,-2.881117566,1644709466
,,,
2.68485596,-28.88465885,-16.4074529,1644709466
,,,
2.724108329,-39.75754065,-14.51549379,1644709466
,,,
-1.601493113,-30.50185281,-4.616068159,1644709466
,,,
-1.970464568,-23.74260952,-4.262797795,1644709466
,,,
-1.711399435,-42.05772478,-4.451208496,1644709466
,,,
0.981307011,-42.25398615,-2.834014771,1644709466
,,,
-1.8527077,-10.3497307,1.318876702,1644709466
,,,
-2.300183654,-8.347865151,1.468035274,1644709466
,,,
-4.804479339,-6.840577628,-1.837006728,1644709466
,,,
-4.498311531,-14.62823079,-0.60448513,1644709466
,,,
1.224671232,-11.94337315,-0.847849292,1644709466
,,,
0,1.69286719,-1.318876702,1644709466
,,,
0.376821911,-7.74338068,2.26878195,1644709466
,,,
2.692706626,-8.858145471,-1.742801258,1644709466
,,,
2.535697389,-3.323573408,0,1644709466
,,,
2.857566049,-0.568063136,-1.295325305,1644709466
,,,
2.802612828,-5.890671542,-2.033268215,1644709466
,,,
3.854573971,-2.986002938,-2.205978303,1644709466
,,,
7.073261289,1.386699382,-2.205978303,1644709466
,,,
-0.863550203,10.73659233,-0.588784219,1644709466
,,,
2.888967992,4.299221048,-0.612335616,1644709466
,,,
-1.593642687,8.74257792,-2.480744168,1644709466
,,,
-1.499437097,9.629680599,-1.232521658,1644709466
,,,
-3.171584283,7.89472713,-2.26878195,1644709466
,,,
-1.805604905,6.764261967,-1.837006728,1644709466
,,,
-1.169718011,-1.251053304,-2.834014771,1644709466
,,,
1.53083904,-0.889931316,-2.488594594,1644709466
,,,
1.216820686,5.759403619,-2.111772713,1644709466
,,,
0.635886954,0.389692178,-1.43663345,1644709466
,,,
0.392522822,0.87642098,-2.064669918,1644709466
,,,
0.353270543,0.994176649,-2.009716817,1644709466
,,,
0,0.813615655,-1.978314994,1644709466
,,,
0,0.373993723,-1.640745362,1644709466
,,,
0,0,-1.53083904,1644709466
,,,
0,-0.31684759,-1.397381201,1644709466
,,,
0.463176925,-0.685818805,-1.358128952,1644709466
,,,
0.345420087,-0.552362764,-1.389530775,1644709466
,,,
0.361120999,-0.520960101,-1.538689466,1644709466
,,,
0,-0.387502142,-1.632894936,1644709466
,,,
0.368971455,0,-1.789904053,1644709466
,,,
0,0.672310386,-2.253080858,1644709466
,,,
0,0,-2.669155108,1644709466
,,,
0,0.358291433,-2.677005534,1644709466
,,,
0,0,-2.747659607,1644709466
,,,
0,0.499600538,-2.896818418,1644709466
,,,
0,-0.528811246,-2.77906155,1644709466
,,,
0.314018264,0.735111876,-2.881117566,1644709466
,,,
0,0,-2.433641373,1644709466
,,,
0,0,-2.606351462,1644709466
,,,
0.565232881,0,-2.072520584,1644709466
,,,
0.423924646,0,-2.127473565,1644709466
,,,
0,0,-2.323735171,1644709466
,,,
0,0,-2.190277212,1644709466
,,,
0.463176925,0,-2.221679155,1644709466
,,,
0.361120999,0,-2.064669918,1644709466
,,,
0.337569631,0,-2.033268215,1644709466
,,,
0,0,-2.048969066,1644709466
,,,
0,0,-2.04111864,1644709466
,,,
0,0,-1.923361773,1644709466
,,,
0,0.311188399,-1.679997612,1644709466
,,,
0,0,-1.562240864,1644709466
,,,
0,0,-1.601493113,1644709466
,,,
0,0,-1.444483996,1644709466
,,,
0,0,-1.57009129,1644709466
,,,
0.329719176,0,-1.719249981,1644709466
,,,
0,0,-1.515138069,1644709466
,,,
0,0,-1.554390318,1644709466
,,,
0,0,-1.593642687,1644709466
,,,
0,0,-1.734950832,1644709466
,,,
0,0,-1.734950832,1644709466
,,,
0,0,-1.648595788,1644709466
,,,
0,0,-1.593642687,1644709466
,,,
0,0,-1.837006728,1644709466
,,,
0,0,-1.931212199,1644709466
,,,
-0.368971455,0.664459241,-1.562240864,1644709466
,,,
0,-1.039089648,-1.797754479,1644709466
,,,
-0.306167808,-0.607315026,-1.585792141,1644709466
,,,
0,-1.329557083,-1.876259098,1644709466
,,,
0,-0.960585868,-2.119623139,1644709466
,,,
0,-1.659276409,-2.300183654,1644709466
,,,
-1.216820686,-3.048806345,-2.959622065,1644709466
,,,
0,-2.177405956,-2.064669918,1644709466
,,,
-1.719249981,-8.167304157,-4.278498647,1644709466
,,,
-1.884109523,-4.053664694,-1.326727128,1644709466
,,,
-2.786911976,-18.8046727,-1.452334422,1644709466
,,,
-7.332326062,-26.23905502,-5.487469028,1644709466
,,,
-3.38354674,-33.34371801,-14.21717617,1644709466
,,,
-2.088221435,-24.74746835,-6.562981449,1644709466
,,,
-0.620186042,-29.36353675,-8.792511509,1644709466
,,,
-4.741675452,-16.7321526,-0.785045645,1644709466
,,,
-2.119623139,-15.57813496,3.744667769,1644709466
,,,
-7.363728245,-24.3627958,-23.49641552,1644709466
,,,
1.452334422,-29.33998523,-5.338310217,1644709466
,,,
-5.220553589,-35.29063106,-18.841095,1644709466
,,,
-8.305782707,-32.49586872,-45.59544997,1644709466
,,,
-2.229529581,-36.09922804,3.485602517,1644709466
,,,
-3.273640299,-41.75155697,-11.06129298,1644709466
,,,
-4.404105941,-47.91416502,-20.02651434,1644709466
,,,
2.472893742,-26.98484859,-0.525980572,1644709466
,,,
2.072520584,-32.80988695,8.768959992,1644709466
,,,
12.99250494,-43.8476286,-8.988772875,1644709466
,,,
4.631769011,-21.00280058,-3.7054154,1644709466
,,,
16.22689383,-18.05887913,-4.930086632,1644709466
,,,
15.17493244,-24.86522498,-2.308034079,1644709466
,,,
0,-0.442456322,19.2493181,1644709466
,,,
7.293073693,5.845758543,4.419806793,1644709466
,,,
17.54576921,18.37508907,4.380554423,1644709466
,,,
7.575690463,42.75860919,15.80296843,1644709466
,,,
-14.03661614,60.52418937,23.73192878,1644709466
,,,
-11.99549678,44.21879176,8.792511509,1644709466
,,,
7.379429097,31.4539499,-3.28934115,1644709466
,,,
8.973071544,26.85358163,12.16035644,1644709466
,,,
7.819054385,12.65995794,3.980181265,1644709466
,,,
7.45008317,22.14330884,10.9042835,1644709466
,,,
4.419806793,10.22631393,11.79923541,1644709466
,,,
0.368971455,27.05769222,10.74727499,1644709466
,,,
-5.157749702,24.03526603,15.80296843,1644709466
,,,
-10.00148141,28.43152371,15.00222164,1644709466
,,,
-10.2840977,23.36012893,12.59213202,1644709466
,,,
1.34242798,2.807633898,7.31662521,1644709466
,,,
2.928220121,1.543710776,6.3902716,1644709466
,,,
2.339436023,0.735111876,7.4108308,1644709466
,,,
1.837006728,0.640905806,7.811204199,1644709466
,,,
2.606351462,3.082400961,8.43139048,1644709466
,,,
3.93307871,10.28126811,9.059426469,1644709466
,,,
0.32186872,4.267816468,6.358869417,1644709466
,,,
1.193269409,3.21585892,5.024292222,1644709466
,,,
4.780927821,-1.674976781,4.702423563,1644709466
,,,
3.242238355,1.441653561,5.636627839,1644709466
,,,
5.149899516,-2.703386647,2.433641373,1644709466
,,,
4.937936819,-4.359832502,3.93307871,1644709466
,,,
4.019433634,-1.761331706,2.834014771,1644709466
,,,
4.223545426,0,3.885975915,1644709466
,,,
2.025417789,-3.362825298,2.834014771,1644709466
,,,
3.799620751,-2.609180578,4.498311531,1644709466
,,,
2.402239669,0,3.768219047,1644709467
,,,
1.075512541,-1.258902531,4.733825266,1644709467
,,,
1.287474879,0.342589143,5.18130122,1644709467
,,,
-0.337569631,-1.046940793,5.299057848,1644709467
,,,
1.609343539,1.347447492,5.840739391,1644709467
,,,
1.515138069,-2.883947641,4.341302534,1644709467
,,,
2.629902979,1.55940923,5.613076321,1644709467
,,,
1.750651804,0,5.793636836,1644709467
,,,
2.920369695,1.865577039,5.668029542,1644709467
,,,
1.067662115,-2.993854083,3.964480413,1644709467
,,,
1.632894936,-1.03124042,3.940929136,1644709467
,,,
1.279624333,-0.560211991,4.459059162,1644709467
,,,
1.538689466,-1.1097442,4.867282746,1644709467
,,,
1.24822251,-1.517967305,4.278498647,1644709467
,,,
1.687848157,-2.774041199,4.741675452,1644709467
,,,
2.127473565,-2.185257101,4.85943256,1644709467
,,,
1.970464568,0,5.299057848,1644709467
,,,
4.262797795,-1.054791938,5.691581059,1644709467
,,,
2.8732669,-0.418904804,5.581674618,1644709467
,,,
2.417940521,0.625207352,5.534571583,1644709467
,,,
2.535697389,-0.764324502,5.385413251,1644709467
,,,
2.127473565,-3.323573408,4.576816269,1644709467
,,,
2.135324231,2.148195247,4.44335831,1644709467
,,,
4.207844575,5.241274072,6.829896888,1644709467
,,,
3.014575286,1.747821369,5.306908513,1644709467
,,,
3.171584283,0.326890689,5.267656144,1644709467
,,,
2.347286449,3.027446781,5.134198664,1644709467
,,,
2.472893742,-1.44731467,4.333451868,1644709467
,,,
3.93307871,1.135485753,5.722982763,1644709467
,,,
2.896818418,3.490622148,5.385413251,1644709467
,,,
3.038126563,0.358291433,4.851581894,1644709467
,,,
4.199993909,0.89212327,5.456067324,1644709467
,,,
5.204852737,2.289504351,5.777935984,1644709467
,,,
4.67102138,3.796789956,5.408964289,1644709467
,,,
4.372704237,7.455105198,5.738683615,1644709467
,,,
4.631769011,12.80911435,6.61793467,1644709467
,,,
2.465043316,13.3036943,7.4108308,1644709467
,,,
4.773077635,11.49023705,8.831763399,1644709467
,,,
2.59065061,16.9384561,8.768959992,1644709467
,,,
3.7054154,20.06293567,7.057560437,1644709467
,,,
3.163733857,19.73321827,8.368586114,1644709467
,,,
3.210836652,14.12799165,7.685596905,1644709467
,,,
3.022425711,27.76423391,9.122229876,1644709467
,,,
3.210836652,35.457681,10.07998615,1644709467
,,,
3.124481727,38.05618371,11.15549809,1644709467
,,,
2.708407477,39.97169434,11.01418994,1644709467
,,,
1.727100407,39.61841966,6.892700774,1644709467
,,,
2.606351462,40.29356444,7.983914047,1644709467
,,,
0.471027381,32.06628551,9.459799387,1644709467
,,,
3.155883431,30.84161428,14.53904531,1644709467
,,,
-3.964480413,28.32161535,12.67063676,1644709467
,,,
-1.224671232,37.45169541,7.434382318,1644709467
,,,
-3.893826341,33.4244147,8.902416992,1644709467
,,,
-6.947653995,28.1489055,-3.226537504,1644709467
,,,
-8.502044073,12.53434729,8.564847481,1644709467
,,,
-2.951771639,10.74444347,14.17792428,1644709467
,,,
-1.907660921,1.237542968,9.177183097,1644709467
,,,
0.423924646,-7.876838639,1.138316188,1644709467
,,,
7.622793018,-17.68205772,-5.895692612,1644709467
,,,
11.15549809,-15.46037929,-4.741675452,1644709467
,,,
6.437374155,-24.7317675,-0.894952027,1644709467
,,,
9.81307023,-22.72990099,-28.74052015,1644709467
,,,
5.903543278,-31.4753094,-2.229529581,1644709467
,,,
7.819054385,-29.22222836,-8.462792184,1644709467
,,,
4.514012383,-28.49213588,-14.24072769,1644709467
,,,
3.155883431,-25.52466363,-15.32409078,1644709467
,,,
2.355136874,-26.92204471,-6.743541963,1644709467
,,,
1.593642687,-26.74933486,-6.076253126,1644709467
,,,
0,-29.35568608,-6.688588742,1644709467
,,,
0,-36.12277956,-4.616068159,1644709467
,,,
0,-37.81062784,-6.319617527,1644709467
,,,
-0.918503364,-36.77436731,-5.36971192,1644709467
,,,
2.135324231,-36.75866646,-5.903543278,1644709467
,,,
2.708407477,-36.05212549,-10.73942384,1644709467
,,,
-0.989157497,-33.94035266,-5.361861734,1644709467
,,,
-0.471027381,-35.87156497,-5.46391751,1644709467
,,,
-0.651587865,-26.59232538,-4.466909827,1644709467
,,,
-2.59065061,-17.76841265,-0.83214838,1644709467
,,,
-3.108780636,-13.78823114,-0.792896071,1644709467
,,,
-3.721116252,-6.471606413,-0.588784219,1644709467
,,,
-3.022425711,-3.920208652,-1.161867585,1644709467
,,,
-3.556256829,-2.028247624,-1.891959949,1644709467
,,,
-3.61120981,-1.816285885,-0.620186042,1644709467
,,,
-6.029150571,-4.995719635,-2.967472491,1644709467
,,,
-2.49644502,0,-2.527846963,1644709467
,,,
-3.312892668,-3.504134402,-1.915511347,1644709467
,,,
-2.17457636,6.732861223,-2.975322916,1644709467
,,,
-1.593642687,-2.507125281,-2.355136874,1644709467
,,,
-2.465043316,0.774363765,-2.68485596,1644709467
,,,
-1.931212199,5.437537356,-2.449342464,1644709467
,,,
-1.295325305,3.529874038,-2.339436023,1644709467
,,,
-1.381680349,2.595672159,-1.782053627,1644709467
,,,
0,0,-0.83214838,1644709467
,,,
-3.469901665,2.101092212,-1.138316188,1644709467
,,,
-4.011583208,1.308195602,-0.314018264,1644709467
,,,
0.887101541,-1.415912008,-0.549531969,1644709467
,,,
-0.447476013,-1.510118077,-2.166725934,1644709467
,,,
-2.637753405,1.928382363,0,1644709467
,,,
-2.826164345,-1.321705938,-0.541681484,1644709467
,,,
0.376821911,-3.001705228,-0.957755673,1644709467
,,,
-2.91251927,1.347447492,-0.839998806,1644709467
,,,
-2.504295446,0.884272125,-1.028409746,1644709467
,,,
-2.504295446,0.664459241,-1.8527077,1644709467
,,,
-1.562240864,-2.562079461,-1.036260292,1644709467
,,,
-1.350278526,0.389692178,-1.106914365,1644709467
,,,
-0.989157497,-0.591614653,-2.315884505,1644709467
,,,
-0.314018264,-0.568063136,-2.127473565,1644709467
,,,
0,-0.701521095,-2.45719289,1644709467
,,,
-1.750651804,0,-2.49644502,1644709467
,,,
-1.923361773,0,-2.574949758,1644709467
,,,
-2.17457636,0,-2.449342464,1644709467
,,,
-2.096071861,0,-2.645603831,1644709467
,,,
-2.347286449,-0.520960101,-2.551398241,1644709467
,,,
-2.198127877,-0.363950625,-2.920369695,1644709467
,,,
-2.158875508,0,-2.724108329,1644709467
,,,
-2.127473565,0,-3.014575286,1644709467
,,,
-1.923361773,0,-3.093079784,1644709467
,,,
-2.166725934,0,-3.148033005,1644709467
,,,
-1.978314994,0,-3.030276137,1644709467
,,,
-1.923361773,0,-2.802612828,1644709467
,,,
-2.103922287,0,-2.8732669,1644709467
,,,
-2.025417789,0,-2.731958755,1644709467
,,,
-1.915511347,1.936233508,-2.221679155,1644709467
,,,
-1.923361773,-2.569928688,-2.378688152,1644709467
,,,
-1.679997612,-0.999837758,-2.943921213,1644709467
,,,
-1.915511347,1.072684264,-1.789904053,1644709467
,,,
-5.000740705,6.717158933,-1.805604905,1644709467
,,,
-1.044110718,-2.609180578,-2.166725934,1644709467
,,,
-1.460184848,0.703711131,-2.865416475,1644709467
,,,
-1.640745362,-2.27946317,-0.494578748,1644709467
,,,
-4.804479339,4.377724828,-2.975322916,1644709467
,,,
-2.001866391,-1.14899609,-2.276632376,1644709467
,,,
-1.632894936,-2.671985903,-1.954763596,1644709467
,,,
-2.3629873,1.056981974,-3.689714548,1644709467
,,,
-1.774203082,-1.761331706,-2.920369695,1644709467
,,,
-0.714391512,5.107816113,-1.742801258,1644709467
,,,
-3.375696314,3.286511555,-3.257939447,1644709467
,,,
-3.768219047,1.755672514,-2.402239669,1644709468
,,,
-1.742801258,-4.24992606,-1.703549009,1644709468
,,,
-2.009716817,-3.362825298,-3.124481727,1644709468
,,,
-1.868408552,-1.235351014,-2.205978303,1644709468
,,,
-2.111772713,-2.208808618,-2.292333228,1644709468
,,,
-2.221679155,-1.722079816,-1.891959949,1644709468
,,,
-1.884109523,-1.737780188,-2.433641373,1644709468
,,,
-2.190277212,-1.761331706,-2.378688152,1644709468
,,,
-2.441491799,-2.020396479,-2.68485596,1644709468
,,,
-2.951771639,-6.024129501,-2.896818418,1644709468
,,,
-2.465043316,-9.72954586,-4.545414086,1644709468
,,,
1.978314994,-1.03124042,-2.810463254,1644709468
,,,
-0.753643821,-5.757213583,-3.626910902,1644709468
,,,
-1.091213393,-18.65551437,-8.345034597,1644709468
,,,
0,-22.67494776,3.085229358,1644709468
,,,
-3.807471416,-29.75605948,-4.600367307,1644709468
,,,
-1.939062744,-25.17924345,-1.491586671,1644709468
,,,
-0.847849292,-27.37737133,-10.17419126,1644709468
,,,
1.577941715,-23.54634815,-3.579808107,1644709468
,,,
-3.132332153,-28.14671594,-16.5880139,1644709468
,,,
-7.198868582,-30.23493726,-9.656061712,1644709468
,,,
-4.168592205,-34.76465061,1.287474879,1644709468
,,,
-6.578682301,-35.08651927,-3.681864123,1644709468
,,,
-9.153632538,-38.23455227,-36.92854527,1644709468
,,,
-1.98616542,-35.20427614,-41.55246697,1644709468
,,,
6.822046702,-46.91715686,-32.95621491,1644709468
,,,
3.226537504,-28.63344426,-45.00666778,1644709468
,,,
6.633635522,-27.51082881,-24.51697424,1644709468
,,,
3.344294371,-17.67420754,-0.580933793,1644709468
,,,
1.036260292,-9.988610633,2.04111864,1644709468
,,,
-1.15401704,-19.69962461,-1.923361773,1644709468
,,,
2.810463254,-19.94298901,-13.84035477,1644709468
,,,
-0.60448513,-22.69849928,-13.99736329,1644709468
,,,
2.567099332,-18.50635508,-33.24668426,1644709468
,,,
8.635502033,-3.928057879,10.7708265,1644709468
,,,
7.026158254,2.093241067,-5.063544112,1644709468
,,,
4.843731708,9.770989704,-1.797754479,1644709468
,,,
1.004858409,22.33956829,-8.604100329,1644709468
,,,
3.375696314,27.22255093,-2.260931524,1644709468
,,,
5.809337687,28.61993201,-7.607092167,1644709468
,,,
3.83887312,41.8165485,-1.538689466,1644709468
,,,
6.248963455,44.51710459,-5.408964289,1644709468
,,,
6.633635522,39.02964132,-8.619800701,1644709468
,,,
5.432515807,41.54963258,-5.401114103,1644709468
,,,
9.852323079,37.59300835,-8.721856957,1644709468
,,,
9.271389166,29.84460324,-12.96110324,1644709468
,,,
11.16334924,35.55973438,-8.65905355,1644709468
,,,
11.38316212,30.82591199,-11.03774146,1644709468
,,,
6.531579745,30.66105329,-5.032142409,1644709468
,,,
12.14465607,21.83714103,-6.421673304,1644709468
,,,
4.875133412,30.8102097,-0.981307011,1644709468
,,,
4.341302534,20.81658039,-1.98616542,1644709468
,,,
3.430649296,17.80200535,-4.184293057,1644709468
,,,
2.009716817,16.88350192,-1.813455451,1644709468
,,,
0,17.95901291,-3.352144797,1644709468
,,,
2.441491799,5.822208944,-4.058685764,1644709468
,,,
-0.573083307,3.867446426,-3.257939447,1644709468
,,,
1.766352656,2.281653206,-3.626910902,1644709468
,,,
3.815321842,0.366142578,-2.480744168,1644709468
,,,
4.02728406,0,-3.752518195,1644709468
,,,
3.870275063,2.077542613,-2.221679155,1644709468
,,,
3.564107255,0.742963021,-1.499437097,1644709468
,,,
2.527846963,3.875293736,-1.766352656,1644709468
,,,
4.5375639,3.341465734,-0.769344733,1644709468
,,,
2.731958755,1.104085009,-1.915511347,1644709468
,,,
1.899810375,2.51716838,-1.122615216,1644709468
,,,
1.161867585,-1.588621857,-2.731958755,1644709468
,,,
2.991023768,-3.708244996,-3.469901665,1644709468
,,,
2.865416475,-3.763199176,-3.493452942,1644709468
,,,
2.425790947,-3.237218484,-4.097938133,1644709468
,,,
2.802612828,-3.072357862,-3.909527192,1644709468
,,,
2.535697389,-2.036098769,-3.438499961,1644709468
,,,
2.417940521,-1.831986258,-2.967472491,1644709468
,,,
1.256073056,-0.31684759,-2.535697389,1644709468
,,,
0.73794291,0.703711131,-2.213828729,1644709468
,,,
0.361120999,0.954924759,-1.884109523,1644709468
,,,
0.392522822,0.907821725,-1.648595788,1644709468
,,,
0.384672367,0.452497503,-1.789904053,1644709468
,,,
0.486728293,0,-1.829156303,1644709468
,,,
1.193269409,-1.392360491,-2.551398241,1644709468
,,,
1.978314994,-1.855537775,-2.857566049,1644709468
,,,
2.237380007,-1.612173374,-2.920369695,1644709468
,,,
2.574949758,-1.439463525,-3.336443945,1644709468
,,,
3.399247592,-1.094043828,-3.312892668,1644709468
,,,
3.870275063,-0.69366995,-3.61120981,1644709468
,,,
4.207844575,0,-3.540555737,1644709468
,,,
4.160742019,0.593802772,-3.666163031,1644709468
,,,
3.956629987,1.088382719,-3.375696314,1644709468
,,,
3.823172268,1.072684264,-3.359995223,1644709468
,,,
3.430649296,0.829317945,-3.187285374,1644709468
,,,
2.182426786,0.962775904,-2.896818418,1644709468
,,,
0.408223734,-0.842828282,-2.45719289,1644709468
,,,
1.954763596,-1.054791938,-1.923361773,1644709468
,,,
-0.902802453,0,-2.166725934,1644709468
,,,
0.60448513,-1.313856711,-1.507287643,1644709468
,,,
0.792896071,-0.583763508,-1.303175731,1644709468
,,,
0.83214838,0,-1.263923482,1644709468
,,,
1.742801258,-0.568063136,-1.727100407,1644709468
,,,
2.009716817,-0.308998363,-1.868408552,1644709468
,,,
1.687848157,-0.921333979,-1.829156303,1644709468
,,,
2.370837726,1.033428539,-1.522988495,1644709468
,,,
1.687848157,0.664459241,-1.789904053,1644709468
,,,
1.554390318,1.904832764,-1.585792141,1644709468
,,,
1.34242798,1.61436341,-1.161867585,1644709468
,,,
1.311026157,0.797917201,-1.232521658,1644709468
,,,
1.413082173,2.375859276,-1.311026157,1644709468
,,,
1.106914365,4.212866124,-1.318876702,1644709468
,,,
1.02055932,6.136227897,-1.405231627,1644709468
,,,
0.894952027,7.305944949,-1.884109523,1644709468
,,,
2.519996537,10.35192074,-1.994015845,1644709468
,,,
1.821305877,14.69322423,-1.679997612,1644709468
,,,
2.151025082,17.86480684,-2.755510273,1644709468
,,,
2.425790947,20.89508417,-4.459059162,1644709468
,,,
3.462051239,20.78517965,-4.655320528,1644709468
,,,
3.752518195,25.15788389,-6.115505496,1644709468
,,,
3.713265826,29.73469872,-4.380554423,1644709468
,,,
3.352144797,37.67151213,-5.165600368,1644709468
,,,
1.468035274,45.48271489,-5.126347999,1644709468
,,,
2.975322916,43.70850953,-3.414948444,1644709468
,,,
5.770085318,45.27075315,-3.948779561,1644709468
,,,
11.26540453,40.16795379,-7.787652681,1644709468
,,,
6.696439408,46.08719552,-2.347286449,1644709468
,,,
11.50091875,48.06551531,-3.940929136,1644709468
,,,
14.5468955,43.1589754,-5.479618362,1644709468
,,,
10.72372347,35.08085672,-6.005599054,1644709468
,,,
11.75998352,20.21994707,-2.347286449,1644709468
,,,
18.10315257,26.12349034,-1.837006728,1644709468
,,,
1.475885819,12.58145032,-4.506161717,1644709468
,,,
4.372704237,3.412118369,-1.444483996,1644709468
,,,
-2.308034079,-14.36916602,-2.308034079,1644709468
,,,
0,-7.963193564,-3.862424397,1644709468
,,,
-2.928220121,-1.03124042,-19.35137531,1644709468
,,,
-2.677005534,-21.42672501,-2.45719289,1644709468
,,,
-12.05045,-30.36054455,-5.675879728,1644709468
,,,
-4.95363815,-21.74074397,-1.263923482,1644709468
,,,
-2.637753405,-29.97587212,-0.353270543,1644709468
,,,
0,-25.79157907,0,1644709468
,,,
4.341302534,-21.84279926,-3.045976989,1644709468
,,,
6.044851423,-23.48354475,-3.579808107,1644709468
,,,
0.447476013,-26.60802623,-4.066536429,1644709468
,,,
-5.149899516,-31.26334706,-3.399247592,1644709468
,,,
-7.96036253,-33.6734371,-3.540555737,1644709468
,,,
-9.459799387,-35.11792121,-4.058685764,1644709468
,,,
-8.918118323,-34.30147356,-4.828030856,1644709468
,,,
0.612335616,-32.02484132,-8.556997294,1644709468
,,,
3.799620751,-29.60690067,-7.379429097,1644709468
,,,
4.404105941,-27.4480254,-8.392137632,1644709468
,,,
3.501303608,-21.61513619,-6.759242815,1644709468
,,,
1.876259098,-19.50336324,-4.749526118,1644709468
,,,
-0.431775102,-15.56243459,-4.600367307,1644709468
,,,
0.486728293,-17.02261907,-4.207844575,1644709468
,,,
0.667288777,-16.41028346,-4.419806793,1644709468
,,,
-0.628036528,-19.3934568,-4.231396092,1644709469
,,,
-1.358128952,-16.58299331,-2.983173342,1644709469
,,,
-1.585792141,-15.43682777,-3.014575286,1644709469
,,,
0.471027381,-11.49589816,-2.567099332,1644709469
,,,
-1.507287643,-7.005436332,-1.656446334,1644709469
,,,
-5.157749702,-5.317589733,-2.300183654,1644709469
,,,
-6.099804644,-6.016280274,-1.931212199,1644709469
,,,
-3.022425711,3.569125928,-2.527846963,1644709469
,,,
-3.454200813,2.634924049,-2.04111864,1644709469
,,,
-2.323735171,0,-1.562240864,1644709469
,,,
-2.567099332,2.006886143,-1.719249981,1644709469
,,,
-0.41607419,3.757538067,-1.546539892,1644709469
,,,
-2.504295446,2.258099771,-3.305042002,1644709469
,,,
-3.548406163,1.755672514,-4.12148965,1644709469
,,,
-2.284482802,0.421092923,-3.721116252,1644709469
,,,
-2.158875508,1.480905451,-3.352144797,1644709469
,,,
-3.132332153,2.948943002,-3.579808107,1644709469
,,,
-2.190277212,3.113801706,-4.325601202,1644709469
,,,
-1.8527077,1.69286719,-4.294199499,1644709469
,,,
-2.410090095,2.35230584,-4.914385781,1644709469
,,,
-2.535697389,0.89997058,-4.545414086,1644709469
,,,
-1.358128952,0.907821725,-4.694572897,1644709469
,,,
-1.656446334,-0.536660473,-4.623918824,1644709469
,,,
0,-1.690679071,-4.223545426,1644709469
,,,
-1.263923482,-1.761331706,-4.584666455,1644709469
,,,
-0.997007923,-2.169556728,-4.584666455,1644709469
,,,
-1.475885819,-3.598338554,-4.545414086,1644709469
,,,
-1.750651804,-2.075350659,-4.404105941,1644709469
,,,
-1.829156303,-1.517967305,-4.639619676,1644709469
,,,
-2.614201887,-2.051799141,-5.063544112,1644709469
,,,
-2.229529581,-0.850679427,-4.608217973,1644709469
,,,
-3.524854886,0,-4.828030856,1644709469
,,,
-2.724108329,0.397543323,-4.985039853,1644709469
,,,
-3.564107255,2.077542613,-4.76522697,1644709469
,,,
-3.124481727,1.378852072,-4.718124414,1644709469
,,,
-2.339436023,0,-5.330460031,1644709469
,,,
-2.700557052,-0.37180177,-5.864290908,1644709469
,,,
-1.679997612,-0.646566915,-5.903543278,1644709469
,,,
-2.260931524,-0.740772985,-5.919244129,1644709469
,,,
-3.148033005,-1.298154421,-6.044851423,1644709469
,,,
-2.739809181,-0.497408584,-5.691581059,1644709469
,,,
-3.155883431,-0.717221467,-5.644478025,1644709469
,,,
-3.069528506,-1.01553813,-5.055693926,1644709469
,,,
-2.755510273,-1.156847235,-4.99289004,1644709469
,,,
-2.629902979,-3.190115449,-4.969339002,1644709469
,,,
-2.056819492,-3.386376815,-4.914385781,1644709469
,,,
-1.656446334,-4.147870763,-5.079245443,1644709469
,,,
-1.577941715,-3.802451065,-4.780927821,1644709469
,,,
-1.381680349,-4.328431757,-5.848590057,1644709469
,,,
-0.345420087,-7.696277646,-4.922235967,1644709469
,,,
-1.405231627,-10.05926519,-5.157749702,1644709469
,,,
-2.127473565,-12.52430802,-4.741675452,1644709469
,,,
-2.276632376,-11.07982391,-5.644478025,1644709469
,,,
-3.281490724,-13.59196978,-4.725974601,1644709469
,,,
-3.831022694,-18.91457914,-4.490460865,1644709469
,,,
-4.223545426,-20.44541818,-2.661304682,1644709469
,,,
-5.110647147,-20.15495171,-3.250089021,1644709469
,,,
-4.914385781,-25.53251381,-3.030276137,1644709469
,,,
-3.375696314,-26.79643741,-2.166725934,1644709469
,,,
-4.977189188,-30.36839509,-1.475885819,1644709469
,,,
-2.91251927,-34.89810833,-0.879251115,1644709469
,,,
-3.728966678,-38.17174839,-0.706541086,1644709469
,,,
-3.045976989,-41.48464106,0.557382395,1644709469
,,,
-2.841865197,-41.45323935,1.475885819,1644709469
,,,
0.800746556,-39.72613895,2.033268215,1644709469
,,,
1.679997612,-43.5336106,1.350278526,1644709469
,,,
4.843731708,-40.52688574,1.193269409,1644709469
,,,
5.730832949,-37.49660936,2.355136874,1644709469
,,,
5.65232869,-29.2536303,5.573823952,1644709469
,,,
6.594383152,-32.8726906,3.524854886,1644709469
,,,
9.412697311,-27.98970694,0.942054762,1644709469
,,,
12.33306725,-13.11309212,4.514012383,1644709469
,,,
5.864290908,0,5.809337687,1644709469
,,,
0.60448513,11.99266814,7.591391315,1644709469
,,,
-2.472893742,20.9814391,9.357744091,1644709469
,,,
-5.471768176,26.52386039,10.26054618,1644709469
,,,
-3.265789873,25.18143349,7.096812327,1644709469
,,,
2.08037101,21.54667168,4.160742019,1644709469
,,,
5.777935984,18.50069589,-1.805604905,1644709469
,,,
7.905409309,23.44648385,-3.728966678,1644709469
,,,
7.771951829,31.73656427,-4.474760013,1644709469
,,,
3.823172268,52.63448283,-1.66429676,1644709469
,,,
3.995882356,50.4677509,-1.130465762,1644709469
,,,
6.029150571,42.15412089,-1.868408552,1644709469
,,,
9.412697311,31.11637751,-3.752518195,1644709469
,,,
14.11512087,23.21096868,-5.550272435,1644709469
,,,
16.01493113,20.76162621,-6.131206347,1644709469
,,,
15.9992298,20.93433606,-5.895692612,1644709469
,,,
14.46839076,20.97358795,-5.385413251,1644709469
,,,
11.09269468,21.55452282,-4.490460865,1644709469
,,,
6.782794333,19.74891672,-2.794762402,1644709469
,,,
4.019433634,16.75789511,-2.77906155,1644709469
,,,
1.279624333,13.83752613,-2.394389244,1644709469
,,,
1.491586671,12.93472116,-1.742801258,1644709469
,,,
2.441491799,11.46668745,-1.774203082,1644709469
,,,
2.818313919,8.546318471,-1.994015845,1644709469
,,,
3.140182579,6.685758188,-1.491586671,1644709469
,,,
3.375696314,5.892861578,-0.934204276,1644709469
,,,
1.522988495,4.927255119,-0.714391512,1644709469
,,,
3.807471416,4.095106619,-0.41607419,1644709469
,,,
0.792896071,1.072684264,-0.376821911,1644709469
,,,
1.004858409,-1.674976781,-0.792896071,1644709469
,,,
1.703549009,-3.621890071,0,1644709469
,,,
2.849715623,-4.140019618,-0.934204276,1644709469
,,,
1.711399435,-6.550110193,-1.05981157,1644709469
,,,
1.452334422,-5.246935181,-0.471027381,1644709469
,,,
1.43663345,-4.744506007,-0.400373278,1644709469
,,,
1.358128952,-3.174415077,0,1644709469
,,,
1.601493113,-1.753482478,0,1644709469
,,,
1.15401704,0,0.635886954,1644709469
,,,
0.808596982,1.794924404,0.910652938,1644709469
,,,
0.628036528,1.920531218,0.533831058,1644709469
,,,
0,1.849878584,0,1644709469
,,,
0,1.433802416,0,1644709469
,,,
0,1.229691823,0,1644709469
,,,
0,1.276794858,0,1644709469
,,,
0.973456585,1.308195602,-0.839998806,1644709469
,,,
1.609343539,1.68501988,-0.863550203,1644709469
,,,
2.943921213,1.637916845,-0.64373744,1644709469
,,,
3.42279887,0.680161531,-0.949905188,1644709469
,,,
3.532705312,0,-1.161867585,1644709469
,,,
3.925228044,0.381841033,-0.816447468,1644709469
,,,
3.666163031,0,-0.792896071,1644709469
,,,
3.234387929,0,-0.533831058,1644709469
,,,
2.975322916,-0.308998363,-0.455326469,1644709469
,,,
3.10093021,-1.423763153,-0.573083307,1644709469
,,,
3.752518195,-2.051799141,-1.397381201,1644709469
,,,
3.909527192,-3.354974153,-1.679997612,1644709469
,,,
4.011583208,-3.252918856,-1.632894936,1644709469
,,,
4.294199499,-2.514976426,-1.617193965,1644709469
,,,
4.506161717,-1.565070339,-1.263923482,1644709469
,,,
4.341302534,-1.580772629,-1.216820686,1644709469
,,,
4.309900351,-1.172547607,-0.942054762,1644709469
,,,
4.113638984,-0.811427537,-0.706541086,1644709469
,,,
3.7054154,-0.630866543,-0.494578748,1644709469
,,,
3.069528506,-0.308998363,-0.494578748,1644709469
,,,
2.951771639,0,-0.533831058,1644709469
,,,
2.943921213,0.515298992,-0.478877837,1644709469
,,,
2.708407477,1.213989533,-0.64373744,1644709469
,,,
2.928220121,1.543710776,-0.761494247,1644709469
,,,
2.991023768,1.606512265,-0.792896071,1644709469
,,,
3.00672486,1.637916845,-0.6986906,1644709470
,,,
3.069528506,2.258099771,-0.549531969,1644709470
,,,
3.446350387,2.846885787,-0.478877837,1644709470
,,,
3.375696314,3.781091502,0,1644709470
,,,
2.998874194,4.291369903,0,1644709470
,,,
2.700557052,4.519033932,0,1644709470
,,,
1.05981157,0.460348648,1.303175731,1644709470
,,,
1.43663345,4.778098705,1.75850223,1644709470
,,,
1.138316188,5.319777852,-1.413082173,1644709470
,,,
2.8732669,6.575853664,-1.358128952,1644709470
,,,
3.108780636,6.214731676,-1.994015845,1644709470
,,,
2.221679155,3.388568769,-0.706541086,1644709470
,,,
2.17457636,3.92239677,-1.075512541,1644709470
,,,
1.051961144,2.289504351,-0.392522822,1644709470
,,,
1.884109523,4.778098705,-0.934204276,1644709470
,,,
1.66429676,7.525757833,-1.185418863,1644709470
,,,
2.088221435,7.22744117,-0.651587865,1644709470
,,,
2.967472491,4.165763089,-0.588784219,1644709470
,,,
2.253080858,13.28014086,-2.991023768,1644709470
,,,
1.94691317,11.14481735,-2.700557052,1644709470
,,,
1.789904053,16.96985685,-3.815321842,1644709470
,,,
1.428783024,19.89022582,-3.187285374,1644709470
,,,
1.161867585,25.53470433,-4.192143723,1644709470
,,,
-1.538689466,28.80834415,-4.875133412,1644709470
,,,
-2.543547815,25.64461269,-3.509154034,1644709470
,,,
1.554390318,25.85657443,-4.270648461,1644709470
,,,
5.605225656,24.11377365,-5.989898202,1644709470
,,,
7.434382318,22.08835466,-5.927094315,1644709470
,,,
11.23400283,19.19938643,-7.850456088,1644709470
,,,
10.97493806,17.17396744,-6.743541963,1644709470
,,,
12.23101099,19.20723757,-6.139057013,1644709470
,,,
9.506902422,18.18667693,-5.228403775,1644709470
,,,
11.6736286,25.29918915,-4.977189188,1644709470
,,,
11.76783371,21.00499253,-5.518870731,1644709470
,,,
10.76297536,17.87265798,-4.977189188,1644709470
,,,
11.85418863,12.09472152,-5.628777173,1644709470
,,,
9.459799387,9.794539303,-5.322609365,1644709470
,,,
8.2429793,5.013610044,-4.725974601,1644709470
,,,
7.442232504,0.499600538,-2.308034079,1644709470
,,,
-1.98616542,0,-0.471027381,1644709470
,,,
-5.016441557,-4.092918501,-8.454941039,1644709470
,,,
-2.182426786,-0.458156694,-20.47398933,1644709470
,,,
-1.208970261,4.048003585,-9.30279087,1644709470
,,,
-0.573083307,-2.004696107,-1.766352656,1644709470
,,,
1.868408552,-5.74151321,-3.61120981,1644709470
,,,
0,-12.18673755,-10.0093316,1644709470
,,,
0.753643821,-19.8801856,-4.796628673,1644709470
,,,
1.452334422,-31.04353424,-4.812329525,1644709470
,,,
-1.051961144,-32.18185046,-0.628036528,1644709470
,,,
-3.42279887,-38.15604754,-2.598501036,1644709470
,,,
-2.45719289,-40.24426945,-3.38354674,1644709470
,,,
-2.143174656,-41.49249124,1.554390318,1644709470
,,,
-6.61793467,-41.96351871,-2.237380007,1644709470
,,,
-6.822046702,-32.71568148,-3.901676766,1644709470
,,,
-1.750651804,-34.85100553,-1.012708894,1644709470
,,,
0,-38.5956733,-1.515138069,1644709470
,,,
-3.226537504,-32.95904564,-2.143174656,1644709470
,,,
-1.099063939,-27.45587559,-5.04784326,1644709470
,,,
-1.365979378,-28.90821013,-3.791770325,1644709470
,,,
-2.826164345,-24.19008595,-5.063544112,1644709470
,,,
-2.928220121,-18.36504693,-4.773077635,1644709470
,,,
-3.721116252,-21.56803316,-5.197002071,1644709470
,,,
-1.413082173,-19.80953105,-6.963354847,1644709470
,,,
0,-18.40429978,-7.261671989,1644709470
,,,
-1.075512541,-11.48019778,-4.663171194,1644709470
,,,
-2.308034079,-3.943758252,-6.468775859,1644709470
,,,
-2.119623139,3.875293736,-7.183167731,1644709470
,,,
2.77906155,0,-7.764101164,1644709470
,,,
-0.839998806,1.104085009,-8.156624376,1644709470
,,,
3.823172268,7.85547524,-8.88671662,1644709470
,,,
1.601493113,7.1567847,-9.028024765,1644709470
,,,
-0.690840175,1.936233508,-10.06428482,1644709470
,,,
-1.075512541,8.78182981,-10.15849089,1644709470
,,,
-1.177568437,8.821081699,-9.58540716,1644709470
,,,
-0.32186872,5.963518048,-9.663911899,1644709470
,,,
0,5.453235811,-9.161482724,1644709470
,,,
-0.839998806,3.474923694,-8.690455254,1644709470
,,,
0,2.061840322,-8.533445777,1644709470
,,,
0,0,-7.905409309,1644709470
,,,
-0.902802453,1.418103962,-7.991764713,1644709470
,,,
-1.8527077,-1.588621857,-7.866157419,1644709470
,,,
-1.640745362,-1.682827926,-7.591391315,1644709470
,,,
-1.067662115,-2.467873391,-8.360735928,1644709470
,,,
-1.797754479,-2.357966949,-7.285223507,1644709470
,,,
-1.774203082,-1.046940793,-7.434382318,1644709470
,,,
-1.782053627,0,-7.669896053,1644709470
,,,
-1.923361773,1.771374804,-7.159616213,1644709470
,,,
-3.069528506,1.371000927,-7.112513658,1644709470
,,,
-1.970464568,0.640905806,-7.787652681,1644709470
,,,
-2.692706626,-0.638717688,-8.038867268,1644709470
,,,
-3.093079784,1.528008486,-8.423539335,1644709470
,,,
-1.075512541,-2.114602548,-8.337184411,1644709470
,,,
-0.722241998,-6.25179353,-8.949520027,1644709470
,,,
-1.577941715,-3.480582885,-8.792511509,1644709470
,,,
-0.785045645,-3.331422636,-8.384287445,1644709470
,,,
-0.918503364,-2.138154066,-7.913259975,1644709470
,,,
-2.402239669,-3.127312042,-7.646344536,1644709470
,,,
-2.355136874,-3.354974153,-6.822046702,1644709470
,,,
-1.224671232,-4.132170391,-6.861298591,1644709470
,,,
-2.04111864,-3.127312042,-6.837747553,1644709470
,,,
-3.901676766,-10.65589851,-6.665037225,1644709470
,,,
0.518130146,-17.66635639,-7.803353533,1644709470
,,,
0.706541086,-11.90412126,-6.037000757,1644709470
,,,
5.903543278,-33.75194172,-7.03400892,1644709470
,,,
-4.231396092,-18.12953368,-2.951771639,1644709470
,,,
-1.279624333,-39.46707369,-5.134198664,1644709470
,,,
-10.32334959,-56.80873183,0,1644709470
,,,
0.6986906,-40.74669863,-5.840739391,1644709470
,,,
-6.162608051,-47.62369759,-2.574949758,1644709470
,,,
-4.325601202,-21.23046365,12.18390796,1644709470
,,,
-6.374570748,-44.26370285,9.601108492,1644709470
,,,
9.640360381,-39.68688658,-7.026158254,1644709470
,,,
3.454200813,-60.37283909,-12.65493543,1644709470
,,,
13.09456119,-39.20800892,-5.707281911,1644709470
,,,
-1.452334422,2.799782753,4.867282746,1644709470
,,,
-9.004473248,4.205014979,-0.518130146,1644709470
,,,
-17.73418135,-19.61326968,4.898684929,1644709470
,,,
4.741675452,-11.19758149,-7.348026914,1644709470
,,,
-5.244104627,1.316046747,3.760368621,1644709470
,,,
0.376821911,6.811365002,-13.11026253,1644709470
,,,
7.088962141,16.17696024,-18.78614273,1644709470
,,,
12.96110324,19.01882543,-8.831763399,1644709470
,,,
17.6635268,38.37805381,-16.996237,1644709470
,,,
23.59062159,50.04382743,-3.108780636,1644709470
,,,
16.87848133,43.04121973,-16.95698511,1644709470
,,,
13.0553093,53.47447481,-14.81381141,1644709470
,,,
12.66278561,24.77320846,-9.546155271,1644709470
,,,
2.959622065,48.772057,-8.447090853,1644709470
,,,
11.20260113,52.99559715,-15.93642639,1644709470
,,,
3.799620751,33.10254461,-15.26913755,1644709470
,,,
1.11476479,17.55863903,-6.358869417,1644709470
,,,
8.078119637,9.661081344,-9.020174579,1644709470
,,,
2.967472491,32.7963768,-5.722982763,1644709470
,,,
13.01605646,-5.922074204,-8.494193887,1644709470
,,,
3.674013457,40.96085424,-8.117371527,1644709471
,,,
3.438499961,18.66555459,9.11437969,1644709471
,,,
0.792896071,12.07902306,9.334192573,1644709471
,,,
3.297191576,12.97397305,-10.42540585,1644709471
,,,
-14.77455857,61.7488606,-0.41607419,1644709471
,,,
3.93307871,22.15900729,-2.77906155,1644709471
,,,
11.83063807,-24.12728207,-6.044851423,1644709471
,,,
5.27550681,15.86294128,-9.891574968,1644709471
,,,
1.216820686,11.97696585,0,1644709471
,,,
5.942795647,10.27341696,-3.650462179,1644709471
,,,
3.823172268,4.495480497,-2.17457636,1644709471
,,,
4.749526118,4.040156275,-2.300183654,1644709471
,,,
5.793636836,1.190439933,-3.885975915,1644709471
,,,
3.430649296,4.228564579,-3.257939447,1644709471
,,,
2.739809181,0,-3.171584283,1644709471
,,,
2.096071861,1.449504706,-2.198127877,1644709471
,,,
1.66429676,0,-2.3629873,1644709471
,,,
3.454200813,0,-2.881117566,1644709471
,,,
2.661304682,-1.463015043,-2.747659607,1644709471
,,,
2.622052313,-0.638717688,-2.865416475,1644709471
,,,
2.574949758,-2.357966949,-3.108780636,1644709471
,,,
3.556256829,-0.520960101,-3.297191576,1644709471
,,,
2.904668844,-2.774041199,-3.728966678,1644709471
,,,
2.260931524,-1.313856711,-2.724108329,1644709471
,,,
-1.106914365,-3.166563932,-1.232521658,1644709471
,,,
-0.785045645,-2.083201804,-1.256073056,1644709471
,,,
1.263923482,-0.787876019,-1.177568437,1644709471
,,,
2.245230433,-0.324698735,-1.146166614,1644709471
,,,
2.276632376,0,-1.326727128,1644709471
,,,
2.370837726,0,-1.24822251,1644709471
,,,
2.606351462,0,-1.177568437,1644709471
,,,
2.68485596,-0.623015398,-1.004858409,1644709471
,,,
2.551398241,-0.497408584,-0.910652938,1644709471
,,,
2.441491799,-0.450305549,-0.824297894,1644709471
,,,
2.519996537,-0.630866543,-1.02055932,1644709471
,,,
2.315884505,-0.960585868,-1.240372084,1644709471
,,,
2.653454257,-0.842828282,-1.279624333,1644709471
,,,
2.928220121,0.703711131,-1.326727128,1644709471
,,,
2.896818418,0.711562276,-1.62504451,1644709471
,,,
2.410090095,0,-1.373829803,1644709471
,,,
2.983173342,1.473054306,-1.279624333,1644709471
,,,
2.943921213,1.237542968,-1.358128952,1644709471
,,,
2.567099332,0.89212327,-1.538689466,1644709471
,,,
3.022425711,1.245394113,-1.358128952,1644709471
,,,
2.700557052,1.064833119,-1.703549009,1644709471
,,,
3.650462179,2.925389567,-1.389530775,1644709471
,,,
4.309900351,14.2771519,-1.66429676,1644709471
,,,
2.49644502,15.9649985,0,1644709471
,,,
-0.989157497,22.77134291,-1.051961144,1644709471
,,,
1.051961144,21.27975576,-2.582800184,1644709471
,,,
-0.400373278,32.24684267,-3.297191576,1644709471
,,,
7.277372841,27.04199377,-7.842605902,1644709471
,,,
5.793636836,33.62067415,-4.239246278,1644709471
,,,
14.14652258,31.28124005,-11.26540453,1644709471
,,,
6.696439408,40.68608334,-12.70988865,1644709471
,,,
10.13493937,43.55150197,-5.966346685,1644709471
,,,
9.043726096,38.24459585,-34.43209977,1644709471
,,,
-7.293073693,24.71825812,-6.044851423,1644709471
,,,
-4.482610679,40.63898414,-18.15810483,1644709471
,,,
-6.398121786,24.5926513,-27.10762581,1644709471
,,,
-2.072520584,6.293235456,-2.708407477,1644709471
,,,
-0.910652938,-7.303754913,-6.625785335,1644709471
,,,
0.337569631,-9.980759488,-23.26875341,1644709471
,,,
9.765967195,-25.44615889,-7.92111064,1644709471
,,,
1.789904053,-38.0068892,-25.08220874,1644709471
,,,
0.64373744,-50.79528211,-2.103922287,1644709471
,,,
5.118497333,-22.83980743,-7.693447091,1644709471
,,,
4.616068159,-32.05624315,-4.757376304,1644709471
,,,
1.66429676,-22.05476196,-0.997007923,1644709471
,,,
-3.375696314,-27.32241811,-2.810463254,1644709471
,,,
-0.345420087,-23.64840441,-4.309900351,1644709471
,,,
-2.370837726,-24.93587905,-2.08037101,1644709471
,,,
-1.208970261,-24.39419798,-3.045976989,1644709471
,,,
0.447476013,-22.68279795,-3.202986226,1644709471
,,,
0.855699717,-27.76989406,-4.333451868,1644709471
,,,
0,-29.64615304,-6.539429932,1644709471
,,,
2.747659607,-23.53064778,-6.531579745,1644709471
,,,
1.216820686,-18.58485982,-5.895692612,1644709471
,,,
1.413082173,-10.76580495,-4.851581894,1644709471
,,,
-2.308034079,-4.823009786,-5.008590891,1644709471
,,,
-1.483736245,-4.242076833,-4.341302534,1644709471
,,,
-4.678872045,4.927255119,-4.074386615,1644709471
,,,
-2.559248667,-2.805443862,-2.04111864,1644709471
,,,
-4.773077635,3.082400961,-4.113638984,1644709471
,,,
-6.139057013,2.901839967,-4.302050165,1644709471
,,,
-1.868408552,1.425951271,-5.016441557,1644709471
,,,
-2.559248667,3.624080107,-4.592517121,1644709471
,,,
-4.270648461,2.093241067,-5.016441557,1644709471
,,,
-2.943921213,2.839034642,-5.149899516,1644709471
,,,
-1.805604905,2.540717979,-4.090087947,1644709471
,,,
-2.151025082,2.493614945,-4.199993909,1644709471
,,,
-1.844857274,3.325763444,-3.815321842,1644709471
,,,
0,-5.859270797,-3.721116252,1644709471
,,,
-4.325601202,6.552300229,-3.00672486,1644709471
,,,
0,-8.041697343,-3.477752091,1644709471
,,,
0.518130146,-11.73926256,-0.855699717,1644709471
,,,
-5.660178877,-7.790481797,-2.08037101,1644709471
,,,
-4.961488336,3.592679363,-4.333451868,1644709471
,,,
-3.579808107,0,-4.12148965,1644709471
,,,
0,-2.295163542,-5.110647147,1644709471
,,,
0.337569631,-3.543386292,-3.579808107,1644709471
,,,
-0.902802453,-1.517967305,-3.061678081,1644709471
,,,
-6.139057013,4.283518758,-4.066536429,1644709471
,,,
-2.504295446,-2.193108246,-3.728966678,1644709471
,,,
-3.964480413,-1.306005566,-3.909527192,1644709471
,,,
-1.609343539,-1.643576037,-5.079245443,1644709471
,,,
0,-5.199832146,-4.44335831,1644709471
,,,
-5.244104627,5.045014624,-6.217561272,1644709471
,,,
-7.269522655,9.42556617,-7.614942832,1644709471
,,,
-3.862424397,8.72687563,-6.869149257,1644709471
,,,
-4.278498647,0,-5.479618362,1644709471
,,,
-2.841865197,-0.834979054,-5.306908513,1644709471
,,,
-2.68485596,-4.147870763,-7.12821451,1644709471
,,,
-0.64373744,-0.913482834,-6.319617527,1644709471
,,,
-1.994015845,-2.648434385,-3.760368621,1644709471
,,,
1.915511347,-9.297771238,-4.113638984,1644709471
,,,
-1.106914365,-18.32579504,-3.956629987,1644709471
,,,
-4.631769011,11.42743556,-3.854573971,1644709471
,,,
-2.535697389,6.654357443,-4.99289004,1644709471
,,,
-1.381680349,-8.363565524,-4.592517121,1644709471
,,,
-2.315884505,-8.999452657,-3.940929136,1644709471
,,,
-3.485602517,0.719413421,-4.875133412,1644709471
,,,
-2.355136874,-1.682827926,-4.529713234,1644709471
,,,
-1.358128952,3.875293736,-2.606351462,1644709471
,,,
-5.157749702,1.135485753,-6.06840294,1644709471
,,,
-2.119623139,0,-3.964480413,1644709471
,,,
-3.509154034,-1.761331706,-4.647470342,1644709472
,,,
-0.997007923,-2.883947641,-3.823172268,1644709472
,,,
-2.637753405,-9.250668203,-3.273640299,1644709472
,,,
-1.201119835,4.079408165,-3.556256829,1644709472
,,,
-2.347286449,3.506324438,-3.846723546,1644709472
,,,
-0.408223734,-3.723945368,-3.250089021,1644709472
,,,
-2.308034079,-3.935909024,-4.780927821,1644709472
,,,
-2.480744168,-1.729930961,-4.278498647,1644709472
,,,
-4.152891354,5.178472583,-4.490460865,1644709472
,,,
-1.954763596,0.758665311,-4.12148965,1644709472
,,,
-2.096071861,-1.455163898,-4.396255755,1644709472
,,,
-2.284482802,-0.528811246,-4.097938133,1644709472
,,,
-4.521863048,-2.020396479,-4.435507644,1644709472
,,,
-3.367845649,-2.012547252,-4.286349313,1644709472
,,,
-1.216820686,0,-3.728966678,1644709472
,,,
-2.378688152,0.452497503,-4.95363815,1644709472
,,,
-0.871400629,2.399408875,-4.160742019,1644709472
,,,
-3.438499961,-2.71908702,-4.95363815,1644709472
,,,
-1.012708894,0.633058497,-4.302050165,1644709472
,,,
-3.030276137,-0.866379799,-4.977189188,1644709472
,,,
-3.540555737,-0.489557439,-4.207844575,1644709472
,,,
-3.148033005,-0.528811246,-4.710273749,1644709472
,,,
-3.053827415,-0.473857066,-4.631769011,1644709472
,,,
-2.818313919,-0.756473357,-4.592517121,1644709472
,,,
-2.755510273,-1.046940793,-4.474760013,1644709472
,,,
-2.77906155,-0.960585868,-4.545414086,1644709472
,,,
-2.865416475,-0.874230944,-4.576816269,1644709472
,,,
-2.928220121,-0.418904804,-4.490460865,1644709472
,,,
-2.896818418,0,-5.228403775,1644709472
,,,
-2.653454257,-0.387502142,-5.338310217,1644709472
,,,
-3.116631062,0,-5.204852737,1644709472
,,,
-3.179434709,0,-5.157749702,1644709472
,,,
-2.928220121,0,-4.647470342,1644709472
,,,
-2.865416475,-0.418904804,-4.44335831,1644709472
,,,
-2.700557052,-0.599463881,-4.25494713,1644709472
,,,
-2.849715623,-0.434605177,-3.885975915,1644709472
,,,
-2.739809181,0,-3.587658533,1644709472
,,,
-2.920369695,1.598664956,-3.925228044,1644709472
,,,
-2.088221435,1.025581229,-3.83887312,1644709472
,,,
-2.967472491,-2.428621502,-4.482610679,1644709472
,,,
-1.028409746,2.415111165,-3.642611753,1644709472
,,,
-2.637753405,0,-4.576816269,1644709472
,,,
-3.760368621,-1.792734368,-4.741675452,1644709472
,,,
-3.045976989,-1.1097442,-4.21569524,1644709472
,,,
-3.163733857,0,-4.44335831,1644709472
,,,
-3.093079784,-0.403202514,-4.623918824,1644709472
,,,
-2.849715623,-0.858530572,-4.529713234,1644709472
,,,
-2.786911976,-0.575914281,-4.718124414,1644709472
,,,
-2.724108329,-0.340399107,-4.521863048,1644709472
,,,
-2.857566049,0,-4.411956606,1644709472
,,,
-3.257939447,0,-4.474760013,1644709472
,,,
-2.991023768,-0.301147218,-4.396255755,1644709472
,,,
-3.022425711,-0.324698735,-4.694572897,1644709472
,,,
-2.959622065,-0.379650997,-4.647470342,1644709472
,,,
-3.085229358,-0.583763508,-4.710273749,1644709472
,,,
-3.061678081,-0.520960101,-4.5375639,1644709472
,,,
-3.265789873,-0.426754032,-4.663171194,1644709472
,,,
-3.045976989,0,-4.372704237,1644709472
,,,
-3.124481727,0,-4.404105941,1644709472
,,,
-2.943921213,-0.591614653,-4.553264752,1644709472
,,,
-2.77906155,-0.764324502,-4.490460865,1644709472
,,,
-2.991023768,0,-4.317751016,1644709472
,,,
-3.297191576,-0.379650997,-4.042984912,1644709472
,,,
-3.242238355,-0.834979054,-4.247096944,1644709472
,,,
-3.352144797,-0.69366995,-4.278498647,1644709472
,,,
-3.359995223,-0.583763508,-4.25494713,1644709472
,,,
-3.328593519,-0.528811246,-4.576816269,1644709472
,,,
-3.414948444,-0.363950625,-4.357003385,1644709472
,,,
-3.524854886,-0.513108956,-4.44335831,1644709472
,,,
-3.713265826,0,-4.828030856,1644709472
,,,
-3.375696314,0,-4.576816269,1644709472
,,,
-3.367845649,0,-4.788778487,1644709472
,,,
-3.634761328,0,-4.608217973,1644709472
,,,
-3.446350387,0,-4.631769011,1644709472
,,,
-3.697564974,-0.379650997,-4.239246278,1644709472
,,,
-3.728966678,-0.520960101,-4.278498647,1644709472
,,,
-3.619060476,-0.520960101,-4.12148965,1644709472
,,,
-3.83887312,-0.725072612,-4.317751016,1644709472
,,,
-3.51700446,-0.599463881,-4.514012383,1644709472
,,,
-3.634761328,0,-4.631769011,1644709472
,,,
-3.744667769,0,-4.404105941,1644709472
,,,
-3.995882356,0,-4.239246278,1644709472
,,,
-4.066536429,0,-3.93307871,1644709472
,,,
-3.823172268,0,-4.145041167,1644709472
,,,
-3.697564974,6.779964257,-4.875133412,1644709472
,,,
-4.639619676,-5.239084036,-4.702423563,1644709472
,,,
-5.550272435,-6.369549199,-5.322609365,1644709472
,,,
-4.76522697,-5.749364355,-4.435507644,1644709472
,,,
-4.097938133,-2.30301277,-4.035134726,1644709472
,,,
-3.768219047,-1.792734368,-4.113638984,1644709472
,,,
-2.834014771,0,-3.61120981,1644709472
,,,
-5.134198664,-2.350115804,-5.094946295,1644709472
,,,
-2.221679155,0.87642098,-3.728966678,1644709472
,,,
-4.137190502,-0.513108956,-3.603359384,1644709472
,,,
-3.226537504,0.531001282,-4.113638984,1644709472
,,,
-4.977189188,-4.548244641,-4.725974601,1644709472
,,,
-3.603359384,-1.078343455,-3.93307871,1644709472
,,,
-4.302050165,0,-3.972330839,1644709472
,,,
-3.336443945,-1.196099124,-4.451208496,1644709472
,,,
-3.925228044,-0.348250252,-4.490460865,1644709472
,,,
-3.988031691,0,-4.404105941,1644709472
,,,
-3.917377618,-0.418904804,-4.317751016,1644709472
,,,
-3.815321842,-0.442456322,-4.5375639,1644709472
,,,
-3.995882356,-0.544511618,-4.12148965,1644709472
,,,
-3.93307871,-0.33254988,-4.262797795,1644709472
,,,
-4.058685764,-0.481708211,-4.074386615,1644709472
,,,
-3.948779561,-0.481708211,-4.160742019,1644709472
,,,
-4.003732782,-0.638717688,-4.270648461,1644709472
,,,
-4.199993909,0,-4.066536429,1644709472
,,,
-4.294199499,-0.387502142,-4.176442871,1644709472
,,,
-4.105788798,-0.623015398,-4.435507644,1644709472
,,,
-4.105788798,-0.630866543,-4.372704237,1644709472
,,,
-4.184293057,-0.536660473,-4.357003385,1644709472
,,,
-4.137190502,-0.418904804,-4.239246278,1644709472
,,,
-4.192143723,-0.520960101,-4.44335831,1644709472
,,,
-4.066536429,-0.591614653,-4.176442871,1644709472
,,,
-4.231396092,-0.387502142,-3.988031691,1644709472
,,,
-4.113638984,-0.308998363,-4.286349313,1644709473
,,,
-4.160742019,-0.489557439,-4.278498647,1644709473
,,,
-4.090087947,-0.599463881,-4.317751016,1644709473
,,,
-4.145041167,-0.513108956,-4.294199499,1644709473
,,,
-4.192143723,-0.568063136,-4.325601202,1644709473
,,,
-4.145041167,-0.497408584,-4.34915272,1644709473
,,,
-4.168592205,-0.513108956,-4.364853572,1644709473
,,,
-4.184293057,-0.379650997,-3.972330839,1644709473
,,,
-4.184293057,0,-4.176442871,1644709473
,,,
-4.21569524,-0.513108956,-4.035134726,1644709473
,,,
-4.129339836,-0.489557439,-3.791770325,1644709473
,,,
-4.090087947,-0.434605177,-3.728966678,1644709473
,,,
-4.066536429,-0.73292184,-3.728966678,1644709473
,,,
-4.160742019,-0.677969578,-3.603359384,1644709473
,,,
-4.396255755,-0.395353287,-3.854573971,1644709473
,,,
-4.270648461,-0.403202514,-3.862424397,1644709473
,,,
-4.097938133,-0.379650997,-3.823172268,1644709473
,,,
-4.168592205,-0.348250252,-3.791770325,1644709473
,,,
-4.082237281,-0.466007839,-3.728966678,1644709473
,,,
-3.995882356,-0.505259729,-3.713265826,1644709473
,,,
-4.231396092,-0.591614653,-3.768219047,1644709473
,,,
-4.286349313,-0.701521095,-3.744667769,1644709473
,,,
-4.325601202,-0.623015398,-3.846723546,1644709473
,,,
-4.514012383,-0.591614653,-3.893826341,1644709473
,,,
-4.404105941,-0.544511618,-3.901676766,1644709473
,,,
-4.270648461,-0.591614653,-4.207844575,1644709473
,,,
-4.341302534,-0.395353287,-4.278498647,1644709473
,,,
-4.482610679,-0.356101397,-4.451208496,1644709473
,,,
-4.286349313,-0.348250252,-4.364853572,1644709473
,,,
-4.239246278,-0.528811246,-4.396255755,1644709473
,,,
-4.451208496,-0.685818805,-4.404105941,1644709473
,,,
-4.459059162,-0.552362764,-4.207844575,1644709473
,,,
-4.435507644,-0.520960101,-4.21569524,1644709473
,,,
-4.466909827,-0.717221467,-4.12148965,1644709473
,,,
-4.294199499,-0.536660473,-4.011583208,1644709473
,,,
-4.561114938,-0.575914281,-3.93307871,1644709473
,,,
-4.325601202,-0.426754032,-3.878125489,1644709473
,,,
-4.396255755,-0.379650997,-4.097938133,1644709473
,,,
-4.21569524,-0.591614653,-3.980181265,1644709473
,,,
-4.380554423,-0.544511618,-3.940929136,1644709473
,,,
-4.278498647,-0.473857066,-3.909527192,1644709473
,,,
-4.247096944,-0.560211991,-3.791770325,1644709473
,,,
-4.262797795,-0.780024874,-3.972330839,1644709473
,,,
-4.223545426,-0.780024874,-3.760368621,1644709473
,,,
-4.411956606,-0.544511618,-3.807471416,1644709473
,,,
-4.137190502,-0.552362764,-3.83887312,1644709473
,,,
-4.419806793,-0.426754032,-3.642611753,1644709473
,,,
-4.521863048,-0.403202514,-3.823172268,1644709473
,,,
-4.663171194,-0.505259729,-4.066536429,1644709473
,,,
-4.34915272,-0.811427537,-4.090087947,1644709473
,,,
-4.466909827,-0.473857066,-4.019433634,1644709473
,,,
-4.435507644,-0.434605177,-4.262797795,1644709473
,,,
-4.25494713,-0.497408584,-4.262797795,1644709473
,,,
-4.404105941,-0.37180177,-4.074386615,1644709473
,,,
-4.600367307,0,-3.909527192,1644709473
,,,
-4.404105941,-0.536660473,-3.878125489,1644709473
,,,
-4.506161717,-0.560211991,-3.93307871,1644709473
,,,
-4.357003385,-0.69366995,-3.956629987,1644709473
,,,
-4.388405089,-0.607315026,-3.909527192,1644709473
,,,
-4.380554423,-0.772175647,-3.846723546,1644709473
,,,
-4.302050165,-0.473857066,-3.854573971,1644709473
,,,
-4.545414086,0,-3.650462179,1644709473
,,,
-4.411956606,-0.528811246,-3.807471416,1644709473
,,,
-4.357003385,-0.677969578,-3.776069473,1644709473
,,,
-4.419806793,-0.481708211,-3.909527192,1644709473
,,,
-4.710273749,-0.348250252,-3.831022694,1644709473
,,,
-4.521863048,-0.481708211,-3.956629987,1644709473
,,,
-4.474760013,-0.528811246,-3.972330839,1644709473
,,,
-4.521863048,-0.575914281,-4.02728406,1644709473
,,,
-4.67102138,-0.607315026,-3.893826341,1644709473
,,,
-4.427657458,-0.646566915,-3.783919899,1644709473
,,,
-4.804479339,-0.387502142,-3.752518195,1644709473
,,,
-4.34915272,1.088382719,-3.752518195,1644709473
,,,
-4.85943256,-0.882080171,-4.898684929,1644709473
,,,
-4.647470342,-1.172547607,-3.995882356,1644709473
,,,
-4.796628673,0,-3.988031691,1644709473
,,,
-4.616068159,-0.481708211,-3.901676766,1644709473
,,,
-4.702423563,-0.65441806,-3.791770325,1644709473
,,,
-4.608217973,-0.544511618,-3.831022694,1644709473
,,,
-4.757376304,-0.513108956,-3.658312605,1644709473
,,,
-4.600367307,-0.780024874,-3.893826341,1644709473
,,,
-4.639619676,-0.379650997,-3.791770325,1644709473
,,,
-4.757376304,-0.560211991,-3.768219047,1644709473
,,,
-4.631769011,-0.599463881,-3.870275063,1644709473
,,,
-4.568965603,-0.717221467,-3.878125489,1644709473
,,,
-4.773077635,-0.623015398,-4.035134726,1644709473
,,,
-4.733825266,-0.568063136,-3.878125489,1644709473
,,,
-4.820180191,-0.772175647,-3.909527192,1644709473
,,,
-4.773077635,-0.568063136,-4.074386615,1644709473
,,,
-4.749526118,-0.466007839,-3.846723546,1644709473
,,,
-4.67102138,-0.513108956,-3.870275063,1644709473
,,,
-4.76522697,-0.560211991,-3.768219047,1644709473
,,,
-4.639619676,-0.544511618,-3.909527192,1644709473
,,,
-4.843731708,-0.646566915,-3.744667769,1644709473
,,,
-4.906535115,-0.670118433,-3.721116252,1644709473
,,,
-4.718124414,-0.897782461,-3.768219047,1644709473
,,,
-4.678872045,-0.599463881,-3.744667769,1644709473
,,,
-4.741675452,-0.560211991,-3.776069473,1644709473
,,,
-4.843731708,-0.874230944,-3.783919899,1644709473
,,,
-4.914385781,-0.74862413,-3.744667769,1644709473
,,,
-4.961488336,-0.379650997,-3.352144797,1644709473
,,,
-4.914385781,-0.450305549,-4.239246278,1644709473
,,,
-4.741675452,-0.505259729,-4.035134726,1644709473
,,,
-4.733825266,-0.466007839,-3.783919899,1644709473
,,,
-4.95363815,-0.646566915,-3.7054154,1644709473
,,,
-4.796628673,-0.69366995,-3.501303608,1644709473
,,,
-4.780927821,-0.866379799,-3.681864123,1644709473
,,,
-4.835881042,-0.709370322,-3.666163031,1644709473
,,,
-4.85943256,-0.607315026,-3.556256829,1644709473
,,,
-5.000740705,-0.685818805,-3.674013457,1644709474
,,,
-4.733825266,-0.819276764,-3.791770325,1644709474
,,,
-5.000740705,-0.505259729,-3.878125489,1644709474
,,,
-4.773077635,-0.560211991,-3.815321842,1644709474
,,,
-4.812329525,-0.583763508,-3.807471416,1644709474
,,,
-4.655320528,-0.889931316,-3.768219047,1644709474
,,,
-4.843731708,-0.819276764,-3.862424397,1644709474
,,,
-4.710273749,-0.827127909,-4.074386615,1644709474
,,,
-4.710273749,-0.662269205,-3.988031691,1644709474
,,,
-4.804479339,-0.685818805,-4.152891354,1644709474
