AccelerationX,AccelerationY,AccelerationZ,Time
0,0,0,1649290691.0061874
-0.1480799437109381,0.6440623731613159,-2.8832809937745334,1649290691.0101898
0.13863499370776117,0.6571642351150513,-2.848757242336869,1649290691.0141907
0.2595618822611868,0.9580851616859436,-3.3162973395735027,1649290691.0181918
0.29868108972534535,0.8725088315010071,-3.206689342916012,1649290691.0211914
0.44296011271141467,0.8870988440513611,-3.079183027267456,1649290691.0251932
0.5544242524243891,0.4119990952014923,-3.0675149006098508,1649290691.0281935
0.186826709006913,-0.07504037737846374,-3.3047366052269935,1649290691.0321949
0.07356694677984342,-0.2447394061088562,-3.1818601447045802,1649290691.035195
-0.18058998444024474,-0.1960446639060974,-3.254715759754181,1649290691.0391965
-0.3785490870885551,-0.1321960995197296,-3.287496543571353,1649290691.042197
-0.35417792427539824,-0.10131889235973358,-3.286911399304867,1649290691.045197
-0.3185072864796966,0.14700856757164002,-3.323170687198639,1649290691.0481982
-0.19032683237828313,0.25441238498687746,-3.438709711894393,1649290691.0511985
-0.09616624882631003,0.013573621034622192,-3.0548735311329365,1649290691.0541992
0.03322820433648303,0.16002988529205323,-3.091296304643154,1649290691.0572
-0.016209506355575286,0.09030926275253295,-3.171237654790282,1649290691.0602007
-0.24312156970798968,0.27131900310516355,-3.077147847086191,1649290691.0632014
-0.4335686491131783,0.2885784816741943,-3.06315616312623,1649290691.0662024
-0.5554316546283662,0.15736809015274048,-3.120902303263545,1649290691.0692031
-0.9654786908179521,0.34762507557868955,-3.0836436436176298,1649290691.0722032
-1.0189199094846844,0.511156717300415,-3.153205574840307,1649290691.0752044
-1.0614208960309623,0.3637415931224823,-3.1945882910043,1649290691.0782046
-1.0232231529504061,0.27012618136405947,-3.1952249739915133,1649290691.0812056
-0.8922064511328935,0.0743384919166565,-3.3219203338623045,1649290691.0842068
-0.8082287801504136,-0.20582311737537384,-3.158912469372153,1649290691.0882072
-0.5645130169354379,-0.44076681053638456,-3.0016563261151314,1649290691.091208
-0.643938380587846,-0.4013979399204254,-3.0807085734009743,1649290691.0942085
-0.8376375532709062,-0.609353561758995,-2.99840507183969,1649290691.0972106
-1.1531923003047704,-0.5052597287893296,-2.890321183025837,1649290691.1002095
-1.429711680188775,-0.39402622485160826,-2.899777938991785,1649290691.103211
-1.767317149028182,-0.1345472240447998,-2.900365000978112,1649290691.1062117
-2.0139824252873657,-0.0628916221857071,-3.090907966375351,1649290691.1092124
-2.357732747927308,0.2745522787570953,-3.0198950403779743,1649290691.1122124
-2.225947040453553,0.5609177117347717,-3.046895097449422,1649290691.1152136
-2.108257532671094,0.45887200355529784,-3.0310820590704677,1649290691.118214
-2.0582946982234716,0.5364974672794341,-2.8959753402620554,1649290691.1212144
-1.6513172722831368,0.20609735131263732,-3.0370782895833255,1649290691.1242154
-1.3529140721485018,-0.006474222183227539,-3.0678466661423442,1649290691.1272163
-1.1354758051261307,-0.26520722997188567,-3.1943536100387573,1649290691.130217
-0.9484543726444244,-0.4304571486711502,-3.3437497388124466,1649290691.1332178
-0.8465994775891303,-0.6328091931343078,-3.085297197550535,1649290691.1362183
-1.0708449309021235,-0.7550523266792297,-3.0259691782593725,1649290691.1392186
-0.9996999818794429,-0.7635478255748749,-3.064678353250027,1649290691.1432197
-0.8154174129031598,-0.7646792802810669,-2.8661289075165985,1649290691.1462204
-0.8623177686221898,-0.6789782983064652,-2.95221127602458,1649290691.1502213
-0.482863517768681,-0.28617941415309905,-3.062077685430646,1649290691.1532218
-0.463650242254138,-0.006984335660934448,-3.247651838719845,1649290691.156223
-0.11851991043798625,0.23841093063354493,-3.3673470417410134,1649290691.1602237
-0.1921752745900303,0.5965834653377533,-3.3799109832793475,1649290691.1642249
-0.6607049452289939,0.6549895408153534,-3.4312322825193404,1649290691.1672251
-1.2467076310589909,0.7846120603084564,-3.396422790825367,1649290691.171226
-1.6208779045343398,0.6949893412590027,-3.2517147679179907,1649290691.175227
-1.723476515315473,0.7347973697185516,-3.2365851569473745,1649290691.1782274
-1.6043537516668438,0.6950622146129608,-3.1650019490122796,1649290691.1822286
-1.386130777657032,0.45977333188056946,-3.2361709294617174,1649290691.1862295
-0.6967873234674334,0.2674145255088806,-3.129000594437122,1649290691.1902306
-0.7010242857411504,0.05732448148727417,-3.2336218003630637,1649290691.1942313
-0.2577211708575487,-0.4755082231760025,-3.3844389595389366,1649290691.1982327
-0.2434665495287627,-0.4530172048807144,-3.667284178033471,1649290691.202233
-0.7802312690466642,-0.21510679912567138,-3.6701281565576793,1649290691.2062342
-1.3018453126400709,-0.116702840924263,-3.4540502720475197,1649290691.209235
-1.7036120540574193,0.04268077278137207,-3.299030190125108,1649290691.2132359
-2.1873752221465113,0.2019243929386139,-3.491021034002304,1649290691.2172363
-2.4543570621162654,0.8341659409999848,-3.376665242448449,1649290691.220237
-3.0521841687709093,1.2048688571453094,-3.3314700992405415,1649290691.224239
-3.4574947365969417,1.574467166662216,-3.0483031832426786,1649290691.228239
-3.4103351291269064,1.5043054685592652,-2.962047980234027,1649290691.2312403
-3.059914018020034,1.5632600119113922,-3.0207879786789418,1649290691.23424
-2.5454221462011337,1.4033758733272552,-2.977977999523282,1649290691.2382412
-2.5620192922800777,0.9291084148883819,-3.0856152993291617,1649290691.2422423
-2.114472862675786,0.5831786036491394,-3.076990833774209,1649290691.2452433
-2.2723553811758754,0.17261012744903564,-3.0752176620662213,1649290691.2482436
-2.766496649757028,0.12244257640838623,-3.1201196338534354,1649290691.2502441
-3.8609820322841406,0.21801022696495057,-2.949224667087197,1649290691.254245
-5.245613392740488,0.5107348189353943,-2.668969568952918,1649290691.2572453
-6.308169219344855,0.6910810282230377,-2.6777793341875076,1649290691.2602465
-7.149321893155575,1.1886602890491484,-2.484179283648729,1649290691.2632468
-8.043411784887313,1.927224060535431,-2.469436332941055,1649290691.2662477
-8.8058329500556,2.56295969414711,-2.706247405797243,1649290691.269248
-8.942689108788967,2.952740087270737,-2.734842046916485,1649290691.2722485
-9.765834872722625,3.3863212015628816,-3.2105113585591316,1649290691.2752497
-10.245479617595672,3.1809755964279174,-3.0917428936511278,1649290691.2782502
-11.208412775039672,3.119577877998352,-3.062848369091749,1649290691.2812514
-12.024915557444096,2.792526100873947,-3.0668453766703605,1649290691.2842522
-12.332942594885825,2.1103624699115753,-3.415745016798377,1649290691.2882524
-12.031969889879226,1.7336149008274078,-3.8180639416724445,1649290691.291253
-11.449151817560196,1.1287583920955657,-4.3065630387663845,1649290691.2942536
-10.808774343073368,1.0600503256320952,-4.662728679656983,1649290691.2982552
-10.46048190099001,0.30132364773750303,-5.344115154653788,1649290691.3012555
-10.163242037653923,-0.99137102496624,-5.252963533461094,1649290691.3052564
-10.415273573458194,-1.990773460626602,-4.8179992637336255,1649290691.3092575
-10.29472762197256,-2.651042484164238,-4.218190673053265,1649290691.3122585
-10.071300795316697,-3.912950082540512,-4.512966266393661,1649290691.3152587
-10.042457330048084,-4.442493897676468,-4.809571364462376,1649290691.3192596
-11.132694483697414,-3.6394736446142195,-4.575819054752588,1649290691.3222601
-12.160147407472133,-4.143881905794143,-4.756986048132181,1649290691.3252614
-14.436970836162567,-2.3854900646209716,-5.885927582472562,1649290691.3282616
-11.415480492591858,0.21392164826393126,-6.369692068994045,1649290691.331262
-10.088493153691292,0.8229933052062988,-6.79801815149188,1649290691.3342628
-7.451498446792364,1.203518782377243,-6.971653300195932,1649290691.3372636
-5.4635728001296515,1.394795994758606,-7.405710967868567,1649290691.340264
-3.915944602072239,1.349326857328415,-7.705209425747395,1649290691.343265
-3.455881694495678,1.313994786977768,-7.7796040109694005,1649290691.347266
-3.9324528138935566,-0.640169401884079,-7.616998148500919,1649290691.351267
-3.753501985505223,-1.846472713470459,-7.589043066948652,1649290691.3542674
-1.9793929919451474,-2.7404791843891143,-7.60442413893342,1649290691.3572676
1.722599038630724,-4.188860106945038,-8.046896281838418,1649290691.360269
4.863026366740465,-5.445810399532318,-8.51657559555769,1649290691.3622694
8.054396484136582,-6.431598942041397,-9.16372645652294,1649290691.3662703
13.068273090720176,-7.425062199354172,-9.564303612351418,1649290691.3692708
16.316127248883248,-8.191925762534142,-9.492530070722102,1649290691.3722715
18.687982325434685,-9.16024579501152,-9.140745460808278,1649290691.375272
19.672813925743103,-10.125340222716332,-9.282929045259952,1649290691.3782732
21.924366601228712,-10.389182036161422,-7.374726368397474,1649290691.3812735
25.08645457494259,-9.564414840102195,-5.201474673449993,1649290691.3842742
30.02996812283993,-10.955983312368392,-3.396308686494827,1649290691.3882751
31.957872973918914,-12.345012723565102,-1.8813506437912584,1649290691.3912761
29.09265570247173,-13.078227974414824,-0.5573437411673366,1649290691.3942766
23.424618010044096,-13.303598410129547,1.263042409092188,1649290691.3972769
9.106950442910195,-14.671507972717285,3.722709877163172,1649290691.4002779
-2.433313922300935,-15.833828379750251,4.922514995068312,1649290691.4032784
-20.97727572739124,-16.681484520971775,7.824913018792867,1649290691.4072797
-37.9591240773201,-16.61915287297964,10.23385535877943,1649290691.4102802
-51.48404653429985,-16.453651732981204,13.245479033768177,1649290691.4142814
-61.77143216586113,-14.782110546827315,20.728064198613165,1649290691.4172816
-66.71327729749679,-19.013729094207285,14.424025268375873,1649290691.4202821
-73.62320542860031,-18.735860118985176,20.430779268860817,1649290691.424284
-74.77949844217301,-21.48142317867279,21.891728927254675,1649290691.4282851
-74.00340489339828,-24.51707684212923,22.944259873390198,1649290691.432285
-71.04556750679016,-26.687016155481338,23.524872567892075,1649290691.4362862
-64.62370674610138,-31.547817008346318,23.29295887207985,1649290691.4402869
-59.00466487789154,-36.2187535289228,21.544385756492613,1649290691.4442875
-53.46810414004326,-41.376876707077024,20.513467512965203,1649290691.448289
-47.990217958450316,-47.099695984482764,20.372689617156983,1649290691.4512894
-41.50141343355179,-51.69717041110992,19.994850865483283,1649290691.45429
-36.96436060595512,-54.42076023685932,19.200724997043608,1649290691.4572904
-31.510213878273962,-56.50227444720268,17.289983738541604,1649290691.4602916
-27.129225091338157,-55.574688701868055,15.102308393239975,1649290691.464292
-22.57582753753662,-54.40716743862629,13.115698302388191,1649290691.468294
-22.023315191864967,-52.939540279746055,11.359272124052048,1649290691.4712965
-22.228072057008742,-51.002229012846946,8.24706020796299,1649290691.4742942
-23.43081416285038,-48.21468610697985,5.928658215969801,1649290691.4782958
-25.577922062635423,-47.06486923331022,4.3380491219758985,1649290691.4812963
-29.091395760536194,-44.284176422715184,3.585391547948122,1649290691.4842968
-32.438541781187055,-40.525905787110325,2.695632347047329,1649290691.4872975
-33.84233188199997,-38.64160125547647,2.159134879767895,1649290691.4902983
-34.8008466129303,-37.62452990806103,1.4131081816628575,1649290691.4932992
-37.60466041278839,-37.019291293650866,0.43142164189368487,1649290691.4973
-38.63649340867996,-36.73912249290943,0.038500300840940326,1649290691.5003006
-39.74014501261711,-36.77801385128498,-0.759891872484237,1649290691.5043018
-39.04192239570617,-37.189265994608405,-1.1270862602517009,1649290691.5073018
-37.95597134590149,-38.17147751018405,-1.5437992306798696,1649290691.511303
-37.62210399246216,-38.725891275078055,-1.3812565331086517,1649290691.514304
-37.82581953573227,-38.74625074777007,-0.9114866670556366,1649290691.5183048
-37.596053686141964,-38.42121449419856,-0.6695684665478766,1649290691.521305
-37.8755651884079,-36.988938582867384,-0.8298220658451319,1649290691.524306
-38.666336964845655,-36.81820925915241,-0.6156842545978725,1649290691.5283072
-39.62397721552849,-37.32881798800826,0.08496816578926518,1649290691.531308
-39.139768297433854,-38.00845358479023,0.4364905649702996,1649290691.5353088
-37.80420683312416,-39.13363255280256,-0.32543100421503185,1649290691.5393095
-36.682839333295824,-39.702562977463,-0.08424626412661745,1649290691.54231
-33.68345262861252,-39.57867396086454,0.9782118112035095,1649290691.5463111
-33.13725916981697,-39.001934101581575,0.40785798895545305,1649290691.5493116
-32.711402631044386,-38.47860753417015,-0.18790455745067447,1649290691.5523124
-32.23449255466461,-37.79227957457304,-0.6948211812004447,1649290691.5553133
-32.422421428203585,-35.666078416779634,0.3335974044073373,1649290691.5593143
-32.27439646911621,-33.6994413780719,0.8994868947230279,1649290691.562315
-32.27673225188255,-33.24151037567109,0.6212379113286733,1649290691.565315
-32.02900120282173,-33.493303514927625,0.266951905561611,1649290691.568316
-32.86985998606682,-33.37705301617086,0.27542600989528,1649290691.5713167
-34.73579372048378,-33.22068369848281,0.2818041962645948,1649290691.574317
-36.161798687934876,-32.86633311949298,0.1925333788059652,1649290691.577318
-38.11541824436188,-32.86383624825999,0.5267800812013447,1649290691.580319
-39.26712407207489,-33.41250194757432,0.8631339382007718,1649290691.5843196
-42.55997177314758,-34.64146467722952,1.3591395900398493,1649290691.5883205
-44.5989797232151,-34.825727110147476,1.304960528664291,1649290691.591321
-47.790671538114545,-34.76520650883019,1.8318371550738812,1649290691.594322
-50.978642976522444,-33.53869618327916,2.3951127033531665,1649290691.597322
-53.34843458652496,-32.793806453324855,2.851274009913206,1649290691.6003227
-55.78828050231934,-32.4214876184985,3.271176987439394,1649290691.6033235
-60.059080942630764,-32.219342818872306,3.788652351900935,1649290691.6063244
-64.02418149852753,-32.191418439565226,4.094896629035473,1649290691.609326
-65.41630802726746,-32.233539597725496,4.10391135057807,1649290691.6113253
-69.86175904893875,-33.23314875759184,5.2280106423199175,1649290691.615327
-73.42335600852967,-34.90246538873017,5.858088522970676,1649290691.6173275
-75.71238476514816,-36.536442038923504,6.454261596262455,1649290691.6203275
-78.07623527908325,-37.67353100600839,6.551581563323736,1649290691.6243289
-82.08736111116409,-38.997583274692296,6.897639382362366,1649290691.627329
-85.56875902700423,-39.703565944939854,7.609880531311035,1649290691.6303298
-87.71731864070892,-39.41981676125526,7.827211885452271,1649290691.6333313
-90.79858047628403,-39.105529327392574,7.642028227865696,1649290691.6363316
-94.7184458565712,-38.241453189462426,6.769862668216228,1649290691.640332
-97.8759562330246,-36.894760799765585,5.75336136302352,1649290691.6433332
-102.32768203401565,-34.930531458318235,4.675409602105617,1649290691.6463337
-106.36727449941635,-32.766692531637844,4.060148983806371,1649290691.6503348
-109.82815281295777,-31.214083415865897,3.507013858616352,1649290691.6533353
-112.76525581264495,-30.403350333318112,3.423137347355485,1649290691.6573365
-114.32518282747269,-30.01647720347345,3.435143232420087,1649290691.660337
-116.08520473051071,-29.543297331899403,3.0605468655675647,1649290691.6643379
-117.2432467045784,-29.053003728464244,2.3224665991961957,1649290691.6673388
-116.73630897092819,-28.746241906687615,2.448982652261853,1649290691.6703393
-115.15333863449096,-28.52530068466067,3.136216015338898,1649290691.6733398
-110.45312236738205,-29.02213059645891,4.42156965649128,1649290691.6763418
-106.0796241941452,-29.743205961570144,5.016666888952255,1649290691.6793413
-100.1398091635704,-31.637794445637613,4.985406137824058,1649290691.6823413
-94.04661490011215,-32.98422009249032,4.0018443077653645,1649290691.6863427
-85.37582874011993,-33.70582618656754,3.979661802649498,1649290691.6903434
-77.79164565467835,-33.87324216982722,4.164942305088043,1649290691.6943452
-70.06262869596482,-34.16499339912087,4.877466797143221,1649290691.6983452
-63.55272541737556,-34.104153497450056,5.526403055280447,1649290691.7023463
-59.169270442724226,-34.13405722207576,5.908869744360447,1649290691.7063477
-56.77924688839912,-33.349658747814594,4.730086191922426,1649290691.7103481
-50.08278782367706,-26.931737343251704,5.584223746776581,1649290691.7143493
-44.04646162438392,-26.695514051526786,6.316817656397819,1649290691.71835
-35.03977916336059,-25.63315047633648,9.094849630713462,1649290691.7213507
-27.901761269807814,-25.840594066977502,10.360902380526065,1649290691.7253513
-17.047955988287924,-27.528176979601383,10.96398308068514,1649290691.7293525
-7.314565099835396,-28.700606646776198,11.58493117660284,1649290691.7323537
0.738152240794152,-29.470160291463138,11.972937678873539,1649290691.7363544
5.547013749271631,-28.636842462062834,10.905781242370605,1649290691.740355
12.826906953811646,-26.536924373835326,12.198520981490612,1649290691.7433558
21.13157930123806,-22.971942159295082,15.516077543854713,1649290691.7473564
28.757108426451683,-21.63114915525913,19.09350719845295,1649290691.7503574
32.21135334706307,-20.78371930497885,22.041004239678383,1649290691.7533581
36.7686841442585,-20.35032325065136,31.210620013833047,1649290691.7563586
41.06761369919777,-28.094863672047854,26.56692278587818,1649290691.7593606
44.286260984182356,-27.922206560462712,29.26861225104332,1649290691.76236
46.95302685332298,-27.71989910298586,32.56297111535072,1649290691.7643607
51.58512954711914,-30.03484656240046,30.76721825623512,1649290691.7683613
56.29333887052536,-33.415902424424885,28.748145003914832,1649290691.7713618
64.16026673388481,-33.95522565189004,30.419215389847754,1649290691.7753625
72.68045435476303,-33.69334962113947,31.515606506466867,1649290691.7783637
77.85399456214904,-34.18290670029819,31.14576464653015,1649290691.7813642
85.125819439888,-37.80717642229796,27.922689346432687,1649290691.7843642
91.56520815992356,-41.59382068181038,22.085194257974624,1649290691.7873662
97.21958209848404,-42.913239739358424,24.165864671587943,1649290691.7903662
105.4519928445816,-46.83738834691047,22.538525968909262,1649290691.7933667
108.81991544198989,-50.32416163146496,20.142781856298445,1649290691.7963676
110.21946738195419,-56.46746591436863,17.74520248579979,1649290691.8003683
110.96714032268524,-61.59210043036938,16.335613200187684,1649290691.8033693
111.96138600969314,-63.52605376982689,14.200271470487117,1649290691.8063698
112.10349672079086,-65.34481159615517,11.609086775720119,1649290691.8103704
110.09446273183822,-65.80095276665688,8.593994904398919,1649290691.813372
106.10670239830017,-63.73437567615509,6.554147472470999,1649290691.817372
99.31887932491303,-60.4607320215702,4.884608865261078,1649290691.820373
88.58618380451202,-56.17360027909279,2.950096031039953,1649290691.8243737
76.45841613769531,-52.17738663649559,-2.14882425904274,1649290691.827375
62.5502642185688,-45.522484560728074,2.2516842790097,1649290691.8313756
49.11509105014801,-42.40698663169145,0.9535457989647984,1649290691.8343759
37.031365737199785,-39.77261536553502,-1.492689240194857,1649290691.8383775
29.202938017368318,-37.566483884483574,-1.650274152547121,1649290691.8413777
19.030026836276054,-32.79303828667104,0.17909151111729443,1649290691.8443787
10.40433106404543,-28.01883039522171,1.54423934738338,1649290691.8473794
3.3601215528100727,-23.784794561982153,0.7087117653675378,1649290691.8523798
-2.3963354894667863,-20.255477621614933,-0.7666069482937455,1649290691.855381
-6.91358714056015,-17.93807619994879,-0.7084156574383378,1649290691.859382
-11.097390220284462,-18.030532350063325,0.4282646854985505,1649290691.8623827
-13.722548280894756,-21.795840058624744,2.335209368109703,1649290691.8663833
-15.706394937455654,-25.817765529990197,3.341072601914406,1649290691.8693845
-19.070057320237158,-30.184562710672616,4.55732216745615,1649290691.8733852
-23.993482752799988,-35.85245801240206,5.279313962936401,1649290691.8763855
-29.700135651946066,-41.177064682543275,6.870425020098686,1649290691.879387
-38.12655252575874,-45.84649579304457,9.109855788469314,1649290691.8833873
-48.775255752563474,-49.6294599481821,9.865179472506046,1649290691.8863878
-55.598863478183745,-51.8841500133276,10.471485777437687,1649290691.8903887
-65.3415629787445,-55.394250442028046,11.640240134537219,1649290691.89339
-75.39527061223984,-58.59778417694569,13.084562203049659,1649290691.89739
-86.58789671754838,-61.7842597938776,14.226409033060074,1649290691.900391
-97.53147238254547,-63.938670370817185,15.555163550794123,1649290691.9033918
-104.96178529882431,-64.4622117228508,16.252930709242822,1649290691.9073925
-116.21441302251816,-63.9953888528347,17.198113451838495,1649290691.910394
-128.22045150470734,-61.470029891610146,18.08736397755146,1649290691.9143944
-140.49048330020904,-57.69041503417492,19.176481182813642,1649290691.917395
-151.60475904369355,-53.07208732199669,20.931655090093614,1649290691.9203954
-161.6930393304825,-47.56840301424265,22.8957549854517,1649290691.9243963
-170.89637629032134,-41.26518582695722,24.436989984989165,1649290691.9283977
-178.7472758512497,-33.87065660405159,25.767862624287606,1649290691.932398
-185.1559120159149,-26.614104926556347,26.734215076208113,1649290691.9363987
-190.1483811159134,-17.439344389498235,28.91607589495182,1649290691.9404001
-191.19221903800965,-10.493377508282661,30.27178108847141,1649290691.9444015
-189.75521786499024,-1.7547443380355834,33.01765098333359,1649290691.949402
-185.15281298065185,7.02050002169609,33.56162372255325,1649290691.953403
-179.37493788433073,13.164065114498138,33.357037534475324,1649290691.9564037
-173.19015332126617,17.65516937470436,32.73724965906143,1649290691.9604049
-168.44671164894103,19.47815385556221,32.451290782690045,1649290691.9634056
-164.35369917964934,21.547477120876312,35.15900380587578,1649290691.966406
-157.11070146656036,18.586387281417846,29.700605493307112,1649290691.9694066
-144.90039513778686,19.266656205177306,27.691956966042518,1649290691.9724078
-133.52204170131682,21.93468009853363,28.151325659036637,1649290691.977409
-119.65752557945251,22.86880910396576,27.82231780767441,1649290691.9804096
-107.26992988681793,20.68510919189453,25.013099873304366,1649290691.9844098
-93.94021980333328,17.538403249025343,22.7536404389143,1649290691.9874108
-80.73925008821487,14.841045912981032,22.574857171297072,1649290691.9904118
-72.78633550262451,11.352214915037155,23.10518725156784,1649290691.9934115
-65.62273906183243,9.018353703975677,19.54108958530426,1649290691.9964128
-54.918410453319545,2.54952414894104,19.24062699377537,1649290691.9994135
-48.74095158004761,-3.584089895606041,18.92149731731415,1649290692.0023081
-38.890480059862135,-11.924984135389328,19.205567239642143,1649290692.0053086
-33.30681245183945,-17.416046970009802,18.86383915257454,1649290692.008309
-25.087283029913902,-24.601407613277434,18.561792524456976,1649290692.0113099
-20.360138140797616,-30.094668154835702,17.42458274102211,1649290692.0143113
-15.520783628344535,-35.23035784628987,16.693674507141115,1649290692.0173123
-8.17873760318756,-42.36263648378849,15.871905666053294,1649290692.020312
-1.361787961140275,-48.89259144103527,14.72095733767748,1649290692.0233142
2.8863493455201388,-52.586100677609444,13.582842390477657,1649290692.0263145
7.308344975531101,-55.526364079594615,12.769440561056136,1649290692.0283148
11.297214709997178,-58.00266968500614,12.578266905546188,1649290692.0323145
16.923724179267882,-61.013986524820325,12.46866538119316,1649290692.035317
21.983727701187135,-62.198868905782696,13.403964195728301,1649290692.0383158
24.703813852787018,-62.485218997001645,14.16799624556303,1649290692.0413175
28.651842866659162,-62.28379321122169,15.390415115833282,1649290692.0443187
32.6883132841587,-62.582901892542836,15.68773744112253,1649290692.0483196
36.36264148688316,-63.17401026773452,16.056867826998232,1649290692.0523195
40.78080335521698,-64.72620120072365,17.044575048208237,1649290692.05632
42.935871710062024,-65.39692755055428,17.523299287557602,1649290692.0593214
46.50291499400139,-65.8697758963108,18.183737070441246,1649290692.0623226
48.95634987258911,-65.94385357832908,18.970987913250923,1649290692.065323
52.40257297110558,-65.63012995409966,19.811896557211874,1649290692.0683224
55.26750833773613,-65.11839408540726,20.0747296500206,1649290692.0703235
57.72594846510887,-64.87666166400909,19.71680833661556,1649290692.0743241
60.663534730196,-63.59733733403682,19.46164612317085,1649290692.0773253
63.07727280807495,-61.637985713005065,18.870298032999038,1649290692.0803251
63.84121568393707,-59.80462061464787,18.0326686899662,1649290692.0833278
64.65707507133484,-56.40090377640724,17.47238190805912,1649290692.0863273
64.9207001824379,-54.24333471488953,17.08167717397213,1649290692.0893285
64.77895000267029,-51.92759787404537,16.34241535246372,1649290692.0923285
64.09145511054993,-48.567737370848654,14.696387511074542,1649290692.0953293
63.2068416314125,-44.785498113811016,13.4148942399621,1649290692.0983295
62.6758365137577,-42.46622595643997,12.718924943864346,1649290692.1013308
61.713781672000884,-40.17466820678115,11.853057176172733,1649290692.104332
58.514553218126295,-35.573647436738014,9.675854498922824,1649290692.1093323
57.30941204476356,-33.89480776844174,8.486108780443669,1649290692.1123333
55.61058458185196,-32.39238079635985,6.49478876966238,1649290692.115334
53.47806094145775,-30.59894828835875,4.337030812740326,1649290692.1183352
51.51768334031105,-28.28196073460579,3.9097666676044462,1649290692.121335
50.424494815826414,-26.088331348627804,3.8361305405795574,1649290692.1243362
48.26764681696892,-22.227640570044517,4.596046204775572,1649290692.128337
44.45195197844505,-18.44960879033804,3.7410861878246067,1649290692.1313372
41.48928577327728,-16.647262810409067,2.2280174587368964,1649290692.1343393
36.3471156270504,-12.885295769810677,2.7205269874483347,1649290692.1383393
30.95011695063114,-10.87381668806076,1.6649697595462203,1649290692.1413405
26.214909967303274,-10.625086506962775,0.5102967398092151,1649290692.1453404
21.317444708228113,-10.945207644581794,1.3382724010199307,1649290692.1483412
18.313806418657304,-11.17324179315567,2.147136425867677,1649290692.1513417
13.520001587867737,-12.28794521653652,2.6370275478512046,1649290692.1543427
9.968301980376243,-13.242925589799881,2.991786301523447,1649290692.1573431
4.08323305696249,-15.062485023021697,3.7382592290639876,1649290692.1603448
0.372280180785805,-16.51350664579868,4.101709328770638,1649290692.1633446
-2.821659860983491,-16.91245565748215,4.269491117089987,1649290692.1663454
-7.889855162918567,-20.12377629381418,4.615642424970865,1649290692.1693468
-12.107114782989026,-21.850432748198507,4.868659189343452,1649290692.172346
-14.443842026352883,-23.113027849137783,4.602967735111713,1649290692.176347
-18.20872495996952,-24.057894167959688,5.144497778683901,1649290692.1803482
-19.811689443469046,-23.2721487352252,5.994403884708881,1649290692.1843486
-21.91169047307968,-22.957617750942706,6.25976980599761,1649290692.1883497
-27.681208146333695,-23.46789231711626,5.668503218919039,1649290692.1923506
-34.30246958065033,-24.071499431371688,5.16198354819417,1649290692.1963518
-41.10446460366249,-25.355620458096265,5.425082245200873,1649290692.199354
-48.206966325759886,-28.32456407944858,5.383461012631654,1649290692.2023535
-52.611470193386076,-30.579354345455766,5.141002734273672,1649290692.2053535
-59.74762022781372,-34.551081821978094,4.946450056403875,1649290692.2093563
-64.42837547397613,-37.300103968828914,5.026222886919975,1649290692.2123559
-71.4974820227623,-41.5599278602004,4.868535975843668,1649290692.2163572
-80.89289780187606,-46.60467112648487,5.90600898578763,1649290692.2203574
-89.0114880399704,-49.13632596194744,6.197170636087656,1649290692.2243593
-101.47918305492401,-51.320639544367786,5.724171749323607,1649290692.228359
-112.1110985622406,-51.79744606387615,4.485983948230744,1649290692.2313604
-115.55694195222854,-50.587564287066456,6.832421086579561,1649290692.2343602
-126.63606205558777,-52.96329507541656,3.059131588324904,1649290692.237361
-133.05282935237884,-46.04080492049456,10.339481449902058,1649290692.240362
-143.96873615550996,-43.30833125758171,10.856544744312764,1649290692.2423627
-146.64567361068725,-41.652773307442665,10.72161109972,1649290692.2463636
-147.81554408073424,-39.32336264470219,11.84456743043661,1649290692.2493632
-163.98885681533812,-35.77251570339501,10.24803785586357,1649290692.2523654
-167.79675804042816,-35.58655225297809,12.154742314100265,1649290692.2553654
-170.85719343852998,-35.45898217314482,11.975594679713248,1649290692.2583659
-179.97989411449433,-29.863847559332847,19.772564123272897,1649290692.2613664
-184.59052218151092,-25.175812648653984,25.73289300298691,1649290692.2643683
-185.29443275547027,-24.11180510812998,26.012759283423424,1649290692.267368
-185.88570413684846,-23.143817800045014,25.58463024663925,1649290692.2703693
-187.238647813797,-24.556378113120793,15.351081723034381,1649290692.2733703
-178.57543281173704,-15.835993485450745,30.15253535103798,1649290692.2763705
-178.579835896492,-16.577148096442222,29.035041645288466,1649290692.2793708
-172.05262327861786,-12.431655305981636,28.178915894389153,1649290692.282371
-166.2746101064682,-1.3835313084125518,31.05705092668533,1649290692.285373
-158.2019914484024,2.0324109938144685,26.731116040945054,1649290692.2893734
-148.41979458999634,6.650468307495117,27.40018164539337,1649290692.2923734
-143.19046407699585,11.149991357803344,29.917856303215025,1649290692.2953753
-137.15489345932008,13.135809430360794,30.92922147524357,1649290692.2983758
-128.7791523323059,10.207930663108826,30.352768315076826,1649290692.3013768
-120.47508023118972,4.582445256233215,29.35269084203243,1649290692.3043761
-114.13328810930251,0.6550355660915375,29.09870802628994,1649290692.3073783
-103.57667762470246,-4.507487340807915,28.456994859933854,1649290692.3113785
-96.58980290269851,-7.298636518836021,27.930887598752975,1649290692.3133793
-87.70408637380599,-10.746163666844367,26.48848229122162,1649290692.3163795
-79.7613893995285,-14.122501218914985,25.328390274643898,1649290692.3203797
-74.62875799179076,-16.331034644067287,24.341383980035783,1649290692.3233807
-66.00447270250321,-19.14446005576849,23.784443619251252,1649290692.3263824
-59.85719106864929,-21.571626007974146,22.868279813289643,1649290692.3293824
-52.388949489355085,-25.381173116117715,20.85679306066036,1649290692.3323832
-47.39525304865837,-27.922104441881178,20.116503341317177,1649290692.3343832
-42.638713349819184,-29.981320604488253,18.45069326090813,1649290692.338384
-34.65206990766525,-32.2923296516547,17.625279793262482,1649290692.341385
-27.238747989177703,-34.294448717415335,17.0806607824564,1649290692.3443859
-22.052522065043448,-36.207743899315595,16.231178013086318,1649290692.3483863
-18.831247503876686,-38.42375691127777,14.839178053855896,1649290692.3523872
-16.183950326561927,-40.78981855618954,13.589195796310902,1649290692.3553882
-14.552169225871562,-42.537907447516915,13.445009153485298,1649290692.3583884
-11.23755444574356,-44.7345136141181,13.942408148646354,1649290692.361391
-8.630467059195041,-46.25749096190929,14.007274063408374,1649290692.3643901
-4.705777654647827,-47.962839631140234,14.17006162983179,1649290692.3673904
-1.525269382573664,-48.838596121191976,13.97246073627472,1649290692.3703923
4.491900113940239,-49.778535817742345,13.64559210139513,1649290692.3733919
8.746130495965481,-49.94985340201855,12.963064103662967,1649290692.3763928
12.740506962954997,-49.58201747703552,12.496225891888141,1649290692.3793933
18.167075920462608,-48.45855199170113,11.517188682079315,1649290692.3823948
20.934568106532097,-47.186538009762764,10.843233850896357,1649290692.3853946
26.33518552029133,-46.601815641641615,11.935102984130383,1649290692.3883958
30.78069215583801,-46.516877912163736,11.831660217046737,1649290692.3913963
33.770333008289334,-45.69796455591917,11.02912035280466,1649290692.3943963
39.474874497890475,-43.81418739724159,10.462474411904811,1649290692.3973982
45.23503753376007,-42.992439651072026,11.245877349853515,1649290692.4003978
50.31652335333824,-41.583344178318974,11.383673191308976,1649290692.4034
56.71193108654022,-38.92212675210833,13.334461234390735,1649290692.4063997
60.32992435121536,-36.19376659825444,13.684266757428645,1649290692.4094014
65.48408791732788,-33.25919115331769,14.885889873743057,1649290692.4124017
68.80984369087219,-31.560953688900916,15.677782557427882,1649290692.4154015
72.94585910987854,-30.424279728375375,15.441088944911957,1649290692.418402
76.36176305770874,-31.233630614347756,14.64866121739149,1649290692.4224026
78.73963593912124,-32.8855080406107,15.205454872608184,1649290692.426404
79.99544327068328,-35.64897691038251,14.881122422218322,1649290692.4304047
81.5323499765396,-38.163895804792645,15.482879895687104,1649290692.4344065
81.86389305353164,-39.73699276062846,15.461164595067501,1649290692.4384072
81.2848106994629,-39.35275841328502,14.759268585801124,1649290692.4424076
80.16044388580322,-37.259105995208024,15.00679731541872,1649290692.446408
77.16829465579987,-34.762395610973236,14.429411184549332,1649290692.4494092
73.22324577856064,-31.447663250647484,14.354836813092232,1649290692.4524105
68.78736801433563,-28.759369657859207,13.812101962029933,1649290692.4554107
64.521599670887,-26.679788269400596,12.894652324914931,1649290692.4594111
60.92620098137856,-25.36809426680207,11.881191085100173,1649290692.463412
57.17026229310036,-24.264180414676666,11.139197471678257,1649290692.467414
52.949591049432755,-24.03346912920475,10.815654163002968,1649290692.4704144
48.456814537525176,-23.94008959698677,10.566522219598292,1649290692.4734147
45.55243550920486,-24.054485420942306,10.535796512305737,1649290692.4774156
41.2772281486988,-23.46466095918417,10.648350366353988,1649290692.4804163
37.26719925236702,-23.60815051084757,10.629688075721264,1649290692.484417
33.72884889268875,-23.53077243298292,10.45300950562954,1649290692.4884176
30.342978355288505,-22.657726639926434,11.962396931767463,1649290692.4914186
25.920263820052146,-23.10646445298195,12.762312396407127,1649290692.4944196
19.515737329006196,-24.42002967071533,11.966987953066825,1649290692.4984202
14.930823008477688,-24.97164979723096,11.45023149383068,1649290692.5014207
8.639891693353652,-25.236611559063196,10.761945542275905,1649290692.5044215
5.70762758025527,-25.156201566129923,10.827480741262436,1649290692.5074232
2.9320653893798587,-25.286631925106047,11.05751890707016,1649290692.5104232
1.5647728531509637,-26.07329642507434,11.82180217820406,1649290692.5134234
-1.0003885631598533,-27.812305392384527,12.964761285722256,1649290692.5164242
-3.6096391976177693,-29.024150195166467,13.389214053571225,1649290692.5194254
-8.612045442402362,-31.15557006793469,13.755717163264752,1649290692.5224257
-12.414829232096672,-32.615019320303574,13.528068476378918,1649290692.525427
-17.13169322514534,-34.59461717866361,13.442804734528064,1649290692.5294273
-20.915327623367308,-37.00145985513925,13.64557388305664,1649290692.5324278
-23.067053392529488,-38.739116350531575,13.66766505676508,1649290692.535429
-25.496286646723746,-40.48179535418749,13.812769328534603,1649290692.5384293
-27.169547068715094,-41.29028014993668,14.093781446576118,1649290692.5414302
-29.509579502224923,-41.77292420864105,14.890857726991177,1649290692.5444312
-32.679296165466305,-42.079217627346516,14.894678783774376,1649290692.5484312
-35.62215232467651,-43.07436560153961,13.752451286375523,1649290692.5524333
-37.0182945587635,-44.09210431545973,12.130011399030685,1649290692.555433
-37.17225294303894,-44.68458769577742,10.878875633001327,1649290692.558434
-37.35007159757614,-45.69693953466415,9.489152007222176,1649290692.5614343
-38.7392716858387,-46.53459380805492,8.419489110887051,1649290692.5644352
-40.592161089897154,-47.296754163324835,7.936021391510963,1649290692.5674357
-43.00361708116532,-48.07015427458286,7.20286511054635,1649290692.5704374
-47.02900691342354,-49.51991403770447,6.957327932983636,1649290692.5734377
-51.11187464475632,-50.85112994885444,7.294712384611368,1649290692.576438
-54.35336964392662,-51.64649658203125,7.292452351778746,1649290692.5794396
-57.87351700687408,-51.93446139335632,7.174901399254799,1649290692.5824397
-62.861072908639905,-52.75479482114315,6.572442519754171,1649290692.5854409
-66.13240762853623,-53.26327248382568,6.179635485291481,1649290692.5884407
-70.95024915981293,-54.022329009532925,5.815599042743444,1649290692.5914414
-74.38500045824051,-54.7627395452261,5.3477871087193485,1649290692.5944426
-80.4466597366333,-55.21564360463619,4.911537007838487,1649290692.5974433
-84.98386981725693,-55.378521303892136,4.6040771360397335,1649290692.6004436
-92.26970172071456,-54.56809289908409,4.617683837741613,1649290692.6034434
-96.85946499586105,-53.41512137627601,5.024310440808534,1649290692.6064458
-104.11488953351974,-51.87348940873146,5.368801003307104,1649290692.6094458
-108.37196677064895,-50.78570310103893,5.746620098352432,1649290692.6124463
-112.73196419620514,-49.74322292459011,6.295988342344761,1649290692.6154466
-119.97533778238297,-47.803396568119524,7.4002526577711105,1649290692.6184485
-128.516478410244,-46.076906955361366,8.76438239455223,1649290692.6214485
-134.3112984790802,-45.1130868524909,10.108698249936104,1649290692.6244497
-140.1319157152176,-44.600698959052565,11.117370943307876,1649290692.6274498
-147.7827894258499,-43.0803095741868,14.030342315375805,1649290692.6304502
-152.58308765602112,-41.6353671233058,15.452956754148007,1649290692.633451
-159.01110046195984,-37.4512514552474,18.619909024238588,1649290692.6364524
-165.65555480003357,-37.02605269438028,19.155075593948364,1649290692.639454
-167.08486975193023,-34.691113964483144,18.45016205251217,1649290692.642454
-170.75296152973175,-28.080014287889004,22.765284833788872,1649290692.6454532
-175.95470756053925,-19.96581371051073,25.94834499168396,1649290692.6484542
-178.31124772644043,-15.245343445301055,27.919396621465683,1649290692.651455
-181.03503891277313,-11.700121895432472,27.9620141094923,1649290692.654456
-184.1217394018173,-3.7876922934055326,29.38624135065079,1649290692.6574566
-183.5318027534485,0.7020733983516693,30.29106184375286,1649290692.6604567
-180.76172548103332,6.441202883005142,31.837490028619765,1649290692.6644576
-177.33397769546508,9.877453838348389,31.736784806609155,1649290692.668459
-171.15583611392975,10.91074046587944,31.54328687465191,1649290692.6724598
-164.57264141845704,9.572210371255874,32.35074473142624,1649290692.6764607
-156.68548928165436,6.526480048894882,32.66495929193497,1649290692.6804614
-148.13707666015625,3.1867057433128356,32.73090200638771,1649290692.6844625
-140.42515809154511,-0.8909553786516189,33.17366516327858,1649290692.6874635
-131.94492424583436,-5.661954685091972,32.5859760825634,1649290692.6904645
-122.7532009973526,-10.352862340092658,32.34469240760803,1649290692.6934638
-112.52428280830384,-14.719322481513023,31.842115568876267,1649290692.6984653
-102.91705103731155,-19.670941272318363,31.381903079152107,1649290692.7024662
-90.31173277568817,-26.537645915925502,30.97836112844944,1649290692.7064676
-81.46366492271423,-31.723499772446228,30.531482544779777,1649290692.7104695
-73.0232659535408,-36.31642108270526,29.520483657240867,1649290692.7144694
-64.68310236501694,-40.721907302320005,28.510518420696258,1649290692.7174706
-56.43488577198982,-44.530300422549246,26.601370787382127,1649290692.7204702
-51.278321220636364,-46.568990031123164,25.23094901180267,1649290692.7244723
-44.000110335826875,-50.11383187246322,22.716898844480514,1649290692.727472
-36.33733909130096,-53.66876859104633,20.631493580579757,1649290692.730473
-29.127865038752557,-56.05227956879139,19.152250792622567,1649290692.7344735
-21.482633259892463,-56.95854602265358,16.245940620422363,1649290692.7374742
-16.126898161292075,-56.55344688344002,13.700529021680355,1649290692.7404752
-10.775010967552662,-55.533614978313445,11.413566608190536,1649290692.7434762
-5.137093941807747,-53.544835946321484,9.069301766991614,1649290692.746476
-3.2149470445513724,-52.853630266308784,9.39534098803997,1649290692.7484775
-0.6346214983128011,-49.973951469540594,4.3862591604888435,1649290692.7524774
1.8023698315694927,-48.35132843995094,12.280675140619278,1649290692.7554786
1.6272007467076182,-47.098870406091216,2.662578288152814,1649290692.758479
6.174395795255899,-46.116169392526146,1.35050253944844,1649290692.7614799
8.586191702365875,-42.9336442784667,-1.2416032601296902,1649290692.7644808
10.820244225442408,-39.360383267372846,2.651719439268112,1649290692.7674813
15.31811324238777,-34.918995654329656,4.201479182928801,1649290692.770482
17.708213505506514,-33.12165851891041,4.0172383243590595,1649290692.7734826
19.666226558089257,-31.749273207964375,3.3282996289134026,1649290692.7764833
26.293348544239997,-31.522386904608457,5.5301728130578995,1649290692.7794838
30.039079209804534,-32.500593651833015,6.776969737946987,1649290692.7824848
35.1527750518322,-33.08057436775416,10.480984243810177,1649290692.7864857
38.10780873203277,-33.47293948765099,13.213154906988144,1649290692.7894862
40.26301132726669,-35.467911076724526,15.675778540194035,1649290692.792487
42.11184667158127,-38.08266263061762,17.876742725133894,1649290692.7954884
45.18402618598938,-41.18769556248188,21.052482946395873,1649290692.799489
48.27847426319122,-43.30149842178822,22.815247188806534,1649290692.802489
53.783174003601076,-46.98225194483995,25.018047590494156,1649290692.8054907
57.49810417079925,-48.53448027336597,26.628030928611754,1649290692.8084915
61.75525044584274,-50.32826938736439,26.785354911208152,1649290692.811491
63.745084223747256,-49.75492293334007,26.84329306304455,1649290692.814492
65.8015242471695,-47.78179345411062,27.405018134832382,1649290692.8174937
69.51617826271057,-46.15950506663322,27.16149456310272,1649290692.8214931
74.3973429031372,-44.130917047321795,25.643956827640533,1649290692.8244941
78.28220606088638,-42.48855876284838,24.694288538336753,1649290692.8284953
82.78488184261322,-40.09730930611491,23.892836980104445,1649290692.8314958
85.242248046875,-37.08046128284931,23.612475927948953,1649290692.8344965
85.39461472368241,-34.07402276273817,23.481697023391725,1649290692.8384976
83.28303641939164,-31.196570678420365,22.84660382592678,1649290692.841499
81.63958119916916,-28.89820658147335,22.304337857365606,1649290692.8444984
78.70013858127594,-25.501002319812773,21.44623493731022,1649290692.8484995
74.75796628379821,-22.77315707373619,19.7996020553112,1649290692.8525004
70.63283584260941,-19.827345708251,17.634231709480286,1649290692.8555014
67.03718784952163,-17.412825200676917,16.247321378707884,1649290692.859502
64.57689904022217,-16.06263345170021,15.985360848426819,1649290692.8625028
63.45571947693825,-15.215413591742516,15.125678686082363,1649290692.8655045
62.82129172825813,-14.23549902510643,13.084368513345717,1649290692.8685036
59.51325185060501,-13.261002017021179,11.89704679274559,1649290692.8715043
54.49082413125038,-12.169940243840218,10.874556927919388,1649290692.8745048
50.16741680026054,-11.4407522046566,10.594764479696751,1649290692.8775058
45.88327286529541,-11.374475806951523,9.560686792731286,1649290692.8805065
39.605724358081815,-12.720151325702666,8.805638301491737,1649290692.8835075
33.38764050769806,-14.881998820185661,8.254688897490501,1649290692.886508
30.192723088026046,-15.928208961725234,7.565670376956462,1649290692.8895102
27.2468062479496,-16.416558236956597,7.042636261820793,1649290692.8935096
25.67613808429241,-16.924803855538368,6.517604841470718,1649290692.8965106
24.814769287347794,-17.650109470903875,5.611881581753492,1649290692.9005115
22.091235075473787,-19.15839516699314,5.197959013551474,1649290692.9035113
17.80357020688057,-20.355765739560127,5.49539064887166,1649290692.908513
13.232498947024345,-21.8074508934021,5.669149011075497,1649290692.9115138
8.050891851127147,-23.183637334823608,5.908346206843853,1649290692.9145153
2.7817859109044076,-24.66452456754446,7.498748187094927,1649290692.9185152
-3.6779814590215683,-27.409951948553324,8.976687404990196,1649290692.9235163
-9.47211210757494,-30.816663186468183,9.447083945930004,1649290692.9275172
-11.664958584427833,-32.11889920081594,9.379111325025558,1649290692.9315183
-14.637717749118805,-33.491818480625746,9.381125889718533,1649290692.9345188
-17.202194359660147,-33.92674751225114,9.814535368084908,1649290692.93952
-19.704327815890313,-34.370387546539305,10.09112810075283,1649290692.9435222
-24.04224461519718,-34.22296163518727,10.245410579681396,1649290692.9475224
-25.64706353378296,-33.873369937911626,10.73648014050722,1649290692.9505227
-27.63305611884594,-33.43525641263276,11.090899697482586,1649290692.9535234
-28.78085746896267,-33.40796761886775,11.748302688717843,1649290692.9565246
-29.891823256373407,-33.995291134238244,12.312809413135051,1649290692.9615247
-31.917353471398354,-34.52055723555386,12.711360497951507,1649290692.9645264
-35.424822788476945,-35.18070544274151,13.00685235965252,1649290692.9685273
-39.98267137002945,-35.94784995187819,13.440000069260597,1649290692.9715273
-44.83208240532875,-37.713972840875385,14.339186301469802,1649290692.9755282
-49.63514598751068,-40.24109562492371,15.702574839532375,1649290692.9785292
-52.76483024907112,-42.26383939301967,16.396109590291978,1649290692.98153
-55.66796659493446,-44.452257854759694,16.90917635655403,1649290692.9845304
-60.04374685478211,-47.51211601918936,18.105848879098893,1649290692.9875312
-64.92224202919006,-50.34131371772289,19.630390127420426,1649290692.9905324
-70.51481936359406,-51.762146594762804,19.21191297459602,1649290692.9935327
-70.55889623641967,-56.43891873681545,29.474803570628165,1649290692.9965343
-83.55884288692474,-53.613910297274586,28.5555503180027,1649290692.9995334
-82.85502436351776,-50.83096704244613,24.887473881959913,1649290693.0015347
-90.08497391080856,-50.49287495219708,22.693531428217888,1649290693.0045342
-94.77346140336991,-51.4245953015089,25.25568951547146,1649290693.0085368
-104.26859094333649,-56.047136244177814,26.934052989959717,1649290693.0115364
-108.37728269004822,-56.94052904474735,28.20434869492054,1649290693.0155373
-114.26983743286132,-56.88137314081192,27.987843878030777,1649290693.0185387
-123.28325876140595,-54.58491321980953,28.700401450753212,1649290693.0215387
-129.40188966083525,-52.03318944621086,26.65997438800335,1649290693.0245395
-132.82512696933748,-50.6957773822546,24.09074374997616,1649290693.0275404
-136.51919234466553,-49.47707601189613,22.839234028577803,1649290693.0305417
-140.4809407262802,-48.25237889045477,23.056327585458757,1649290693.0335414
-142.61795566654206,-48.34119520831108,23.52933126652241,1649290693.0365427
-145.90885496425628,-49.89957078778744,22.841602412581445,1649290693.0395432
-149.24159123802184,-51.80883156657219,21.55953574323654,1649290693.0435438
-152.03043148136138,-51.610901784062385,22.50899116563797,1649290693.0465443
-153.92354314136506,-51.097198334813115,22.330177214503287,1649290693.0495465
-155.81134655284882,-50.210745762348175,22.029616819262504,1649290693.0525458
-158.37035190868377,-47.816999913811685,22.21866372346878,1649290693.0555472
-160.29709270381926,-45.700616762459276,22.51337123775482,1649290693.0585465
-161.01712746620177,-44.16236669385433,22.774660566091537,1649290693.060547
-161.5066523036957,-42.28338479363918,23.34098816549778,1649290693.0635476
-161.4592616109848,-40.673172288000586,24.004237325668335,1649290693.067549
-160.05292861366271,-40.188500240564345,23.842855447888375,1649290693.07155
-157.84951454162598,-38.967726773917676,25.577989182829857,1649290693.0745509
-155.8861222848892,-37.33575725725293,26.150771827220915,1649290693.0775526
-151.79261887931824,-36.44971028253436,24.998254804015158,1649290693.080552
-148.09312252140046,-34.81156666684151,24.82556029689312,1649290693.0835538
-144.01942532634735,-32.91104152143374,25.21813672554493,1649290693.0865533
-140.51415563392638,-31.604693642321973,25.33881308197975,1649290693.089554
-134.29166102790833,-30.943911688655614,25.54294093501568,1649290693.0925543
-130.56059133052827,-29.36795756997168,25.4800320533514,1649290693.0955555
-126.87346043014526,-33.996442605145276,21.44642862701416,1649290693.0975554
-115.35297326993943,-40.19243348395825,21.228044444680215,1649290693.1015565
-111.26373487329482,-35.817107483997944,29.169349154353142,1649290693.105558
-105.7105781879425,-34.62267389936745,29.049946163892745,1649290693.1085587
-95.26314732933044,-35.63013027893007,23.503829428076745,1649290693.11156
-89.39850691652298,-38.159528197854755,21.10456054639816,1649290693.1155603
-83.10056154108047,-38.95648030591011,23.016521474719045,1649290693.1185715
-77.57527316045761,-40.57955304080248,24.431675983309745,1649290693.122562
-72.56422519063949,-42.95510068690777,24.621756538510322,1649290693.125563
-67.40215294790268,-44.11090564078093,21.970752408742904,1649290693.129563
-63.92159882879257,-47.94324916410446,21.67303982746601,1649290693.1335642
-59.61110925865173,-49.52191230177879,21.007153802514075,1649290693.1365643
-55.92817049384117,-51.28034825050831,20.84433171713352,1649290693.1395655
-53.54006849479675,-52.96019795787334,19.559888992905616,1649290693.1425667
-49.97577522110939,-54.6041901396513,18.1068173276186,1649290693.1455677
-46.13326298832893,-55.01361565482616,17.11067118024826,1649290693.1495683
-41.757010969400405,-54.02031348598003,16.33197720336914,1649290693.1525686
-40.23937734794617,-53.33568750274181,15.701851859152317,1649290693.1545691
-34.93250575089455,-50.46920261847973,15.063247316658497,1649290693.15757
-29.391833421707155,-46.485289230942726,14.502181940495968,1649290693.1605706
-24.109148107290267,-43.64189081698656,13.870946236491204,1649290693.1645713
-21.133558388113975,-38.608767494648696,13.547095133781433,1649290693.1675718
-17.195311663150786,-34.49359289601445,13.207234905838966,1649290693.1725726
-12.055074578523636,-29.772468448624014,13.869660405337811,1649290693.1765738
-7.787447485119104,-27.32111453577876,14.529866144120692,1649290693.1805744
-0.8212529145218432,-25.948895377278326,15.89800295650959,1649290693.1845753
4.977526226997376,-25.217877353936434,17.845221164107322,1649290693.1875763
10.217244069516658,-25.9853512314558,18.480072728872297,1649290693.1925776
15.699187187433242,-28.03708469095826,19.276417399168015,1649290693.1955786
21.3614544608593,-30.354043958343564,20.33132440018654,1649290693.1995807
28.055357205033303,-33.37904157178849,21.6328501727581,1649290693.20258
34.75745244836807,-37.38328698465228,23.018157289743424,1649290693.2055802
41.13124364352226,-41.3440664383173,25.092961398363112,1649290693.2095811
47.7584730219841,-45.1837557874918,26.746810660123824,1649290693.2145822
52.3452062997818,-46.13132417356968,27.664167287826537,1649290693.2175841
55.03702142548561,-45.684756260514256,26.107101511001588,1649290693.2205842
62.83896159887314,-45.371120851397514,26.716842452168464,1649290693.224585
64.22592946124077,-45.691722377836705,24.603139314293863,1649290693.2265851
66.2271199760437,-44.81863727152348,23.326969633460045,1649290693.2305868
69.71842099714279,-44.15569494652748,24.101346822977067,1649290693.2335868
72.99943253135682,-43.337568814277645,24.017711225271224,1649290693.2365882
74.35885810136794,-42.30350071591139,22.68958284306526,1649290693.2395892
77.50489284229279,-39.51563371539116,20.281567241191862,1649290693.2445903
79.76258605670928,-36.49235797464848,18.74828886127472,1649290693.2475898
81.27307425403595,-33.276976686410606,16.800414793491363,1649290693.250591
81.55448813438416,-31.07528424736112,15.458386777877807,1649290693.254592
81.36582285642623,-26.73353812110424,13.458385249376297,1649290693.2565923
80.27477067184448,-20.563069336652756,12.232399420201778,1649290693.2595937
81.33874465227127,-18.284816247820853,10.065178474724293,1649290693.2635944
80.68622129917145,-16.21529929280281,8.523402678191662,1649290693.265595
78.71513515043259,-14.185615296602249,5.040232309788466,1649290693.2685955
75.46985457229614,-13.04467746579647,2.2346285581737755,1649290693.2715962
72.84502540063858,-12.3159592679739,1.5314776409864426,1649290693.2755969
70.37650573778153,-12.91433196592331,-0.9154938625209034,1649290693.2785978
67.09902280807495,-14.326851527452469,-2.29384534971416,1649290693.2815976
65.47532777309418,-16.841356194376946,-3.3527651794999835,1649290693.2835987
65.0796101193428,-17.576926405191422,-3.608726842403412,1649290693.286599
63.320485709190365,-20.296252180874347,-3.113463947430253,1649290693.289601
60.79154636502266,-23.88760927581787,-5.947842126399278,1649290693.2926013
58.709838464975356,-25.29908032402396,-5.787720190554857,1649290693.2966015
55.30200044679642,-27.121140943348408,-6.652609441697598,1649290693.2996027
53.025206742763515,-27.38034379249811,-6.426785465240479,1649290693.3016021
49.005830879926684,-27.701985202521087,-6.227196855068207,1649290693.3046036
45.627886278629305,-28.30338741838932,-6.8581319564878935,1649290693.3076034
40.490959178447724,-28.374419281870125,-6.737951330631971,1649290693.310605
37.08646566367149,-28.203185358121992,-6.20415449231863,1649290693.3136053
31.89331868863106,-27.99794067299366,-4.578796794235706,1649290693.3166065
28.66437133038044,-28.449044233188033,-3.625174885764718,1649290693.319607
23.766829362511633,-30.134867877572773,-1.8601557643935085,1649290693.3236072
18.391579546809197,-32.710965151205656,-0.3378877931572497,1649290693.3266084
13.116915095627308,-35.58258257290721,1.4811386937350035,1649290693.3306086
8.121943371236323,-38.27068834900856,3.068981476858258,1649290693.33361
3.450494340032339,-39.841376169294115,5.049981518030166,1649290693.3376112
-1.3361337838247418,-40.11078032913804,7.917362936317921,1649290693.3406103
-4.9581246553659435,-39.716733009368184,9.765290240287781,1649290693.3446126
-8.208516915738583,-39.40395482102036,11.505950843811036,1649290693.3466134
-12.939054251253605,-38.48577836808562,13.899101240336895,1649290693.3506148
-15.961630983114242,-37.959558440864086,14.755363149344921,1649290693.3526144
-19.97915049314499,-37.0976392583251,15.801893550097942,1649290693.3556142
-23.203159722805022,-36.75604780879617,16.717032334804536,1649290693.3586154
-25.662215438246726,-37.15255076882243,17.348623775839805,1649290693.361616
-27.756726035952568,-37.583582274585964,17.889123524427415,1649290693.3656166
-30.940662591814995,-38.83477317506075,19.21209707570076,1649290693.3676178
-32.74127687072754,-39.477149872481824,20.201722975611688,1649290693.3706174
-34.63290038013458,-40.27451956403255,21.0549817353487,1649290693.3736188
-35.40701867747307,-40.43101221507788,21.021809017539024,1649290693.3766196
-35.49804133200645,-40.042278417557476,20.734037895917893,1649290693.3796203
-35.66130832839012,-39.40309951797128,20.880990849614143,1649290693.3826206
-36.19266630649567,-38.88515359300375,20.983544753551485,1649290693.3866224
-37.87253902649879,-38.84025593608618,20.581473693966863,1649290693.3886213
-40.33038849616051,-39.50958714473247,20.90325174152851,1649290693.3916235
-41.81065342879295,-40.3576594311595,21.579173194408416,1649290693.395624
-43.28594379615784,-41.40773761361837,22.30800645542145,1649290693.3976245
-45.91084200572968,-43.495406745791435,23.690442745804788,1649290693.4006255
-48.31994303703308,-45.22633587998152,25.511691690206526,1649290693.4036252
-49.50606042957306,-43.38429118162394,24.37899813699722,1649290693.4066255
-56.831615981817244,-47.28156965762377,25.32415019607544,1649290693.4096272
-52.68674836802482,-46.14466191506386,25.21343064105511,1649290693.4126282
-63.68970047473908,-41.5240693757534,31.41499333500862,1649290693.4166281
-70.05575558805465,-44.39779652899504,28.50232016837597,1649290693.4206288
-78.44660067653656,-47.16780092805624,25.743321563482283,1649290693.4246302
-89.4439261932373,-48.47645198869705,23.146953271985055,1649290693.428631
-83.14720815849304,-33.14772896128893,36.368095482110974,1649290693.4326315
-104.84376881980896,-34.367961870655414,25.135565462350844,1649290693.4356322
-113.74993591308593,-35.55310194522142,23.356404715299607,1649290693.439634
-119.46588400030136,-33.86871599142999,24.048519394516944,1649290693.4426343
-124.57887028598785,-34.54049457016587,23.352001630544663,1649290693.4466352
-127.0700727391243,-38.79976567879319,24.011808483600618,1649290693.4496357
-130.3750020751953,-43.11416212368012,27.762615353584287,1649290693.4546363
-137.25320344924927,-45.76988096767664,29.449717877388,1649290693.4586377
-147.40386332702636,-51.68499672555923,24.742342762112617,1649290693.4616382
-158.43332982826232,-51.8791083278656,29.52197756099701,1649290693.464639
-166.8307642021179,-49.25394739067554,33.328509534120556,1649290693.46864
-176.20141838264465,-47.49564760005474,32.03316457259655,1649290693.4716408
-181.9570479288101,-46.942456381559374,30.918672098398208,1649290693.4746416
-187.49255392074585,-45.20914543932676,30.039620006799698,1649290693.4776425
-190.25072598838807,-43.476176810085775,29.487725166916846,1649290693.4806428
-188.6118272705078,-44.98054748111963,24.208691191077232,1649290693.4836433
-196.7010763950348,-40.702893110096454,37.25733833694458,1649290693.4866443
-186.5039463300705,-42.39504978454113,30.544640020608902,1649290693.490645
-183.37034608459473,-41.01567992818355,27.44446371424198,1649290693.493646
-183.08874810314177,-34.7877080745846,32.34621507716179,1649290693.4976466
-177.9928755493164,-27.50321114385128,35.30999355983734,1649290693.499648
-175.69170379066466,-23.71667044121027,31.409474137306212,1649290693.5026476
-172.64805227661134,-20.91934428757429,32.45442817234993,1649290693.5056489
-166.44381436347962,-17.362821614682673,31.16372984600067,1649290693.5086498
-157.44792866516113,-15.407595967888831,30.355894198417662,1649290693.5116503
-151.82460644626616,-14.873907960176467,30.466005836248396,1649290693.514651
-142.9675943479538,-15.732365658402443,32.34032767724991,1649290693.5186515
-135.07054677677155,-17.391402352333067,30.8130421718359,1649290693.521653
-124.45702603816986,-17.97182902801037,31.937196118593217,1649290693.5256536
-114.60312947034835,-20.036888243257998,30.354523028731347,1649290693.5296557
-104.68366222572327,-20.942093239188193,29.689985160827636,1649290693.5326543
-94.91214323139191,-22.88102785593271,28.524841870188713,1649290693.5356555
-87.12487361478806,-26.950806190490724,26.143963921785353,1649290693.5396557
-78.9839074215889,-30.442243609413506,26.29065798330307,1649290693.5426571
-74.72267256784438,-33.50534811396152,25.521487403154374,1649290693.546658
-69.6073389930725,-35.665101098805664,25.337340273141862,1649290693.5486586
-62.996141752481456,-38.38906871536374,25.492639143586157,1649290693.5516589
-59.42805906438827,-40.28956791162491,24.052537017583848,1649290693.55466
-51.788684001922604,-41.34414794141054,24.00837768280506,1649290693.5586612
-44.83825746321678,-42.301718195319175,23.02203491926193,1649290693.5616617
-39.56150173854828,-44.03973713976145,21.081781870126726,1649290693.564662
-31.703454835772515,-45.53312886470556,20.389889646410943,1649290693.5676632
-24.830231862425805,-47.44804020500183,18.613390694499017,1649290693.5706637
-19.739464278817177,-48.45081015670299,17.867313296675682,1649290693.5736644
-14.68030838906765,-49.46869174075127,17.183692198634148,1649290693.5766647
-8.142436125457287,-49.41988768851757,16.212041086792947,1649290693.579665
-4.56412575802207,-49.03384493136406,15.339930182158946,1649290693.5826657
-1.0755212907344103,-48.50867543518543,13.8311497143507,1649290693.5856671
2.8454916051626205,-47.48889339077473,12.7098167334795,1649290693.5886672
6.5890691507756705,-46.542962737441066,12.522126616060733,1649290693.5916677
9.33328549170494,-45.68787639069557,12.897641091287136,1649290693.5946686
13.557457532942294,-44.47171120482683,13.685509439885616,1649290693.5976694
16.8804067234993,-43.279499298632146,14.149262040436268,1649290693.6016707
18.163152265667915,-41.895506778597834,15.743088588893412,1649290693.604671
19.56176644062996,-40.56780221247673,16.99129695558548,1649290693.6086717
21.656566614031792,-39.280574479609726,20.063558931946755,1649290693.611673
23.319348614811897,-39.73259638789296,22.35710967195034,1649290693.615674
24.43654315626621,-40.57068262767792,23.75185388827324,1649290693.6176736
26.668186064362526,-41.84590399605036,25.223932074904443,1649290693.620675
30.455262769699097,-42.3265680090189,26.649683903336523,1649290693.623675
33.816059120178224,-42.24598733901978,27.20393562090397,1649290693.6266763
37.579561295509336,-42.20081736588478,27.447183040976523,1649290693.6296766
43.6040513279438,-41.826718167901035,27.31572334587574,1649290693.6326773
50.06900325345993,-40.563891022861,26.671321536302568,1649290693.6366792
54.54270228838921,-39.158399425119164,26.33084955573082,1649290693.6404881
60.742295484066005,-36.80407182848453,26.073347724080087,1649290693.6426835
64.16643795633316,-35.41255992895365,25.769275983810424,1649290693.6456835
68.60420275688172,-34.39733702374995,24.645269701480863,1649290693.6496844
72.89971109962464,-33.839281508877875,23.5934943369627,1649290693.6526856
76.26351443481445,-34.3841821847856,22.68541563785076,1649290693.6556861
78.45450168228149,-34.73195060992241,21.8777410787344,1649290693.658687
80.38888267326355,-35.147773159056904,20.925098405957222,1649290693.6616879
83.2342726392746,-35.799613564178344,18.9327198138237,1649290693.6646883
85.87827133846282,-35.842291220664976,17.38555138909817,1649290693.668689
88.69070720672607,-35.816393373072145,15.880180627167224,1649290693.6716897
90.96972546577453,-34.96135401046276,14.58302917355299,1649290693.6756907
91.87936135339737,-34.73462798653543,8.937889056026936,1649290693.6796916
94.09837799406051,-32.36755228732899,9.08071987092495,1649290693.683692
92.91439310598373,-31.483606174696238,7.135063166707754,1649290693.6876934
89.57485276222229,-32.104506837012245,1.9095869110152126,1649290693.6916955
84.60067103862762,-29.54430125823617,4.223818221926689,1649290693.695695
77.30539628267289,-28.77344188605249,0.7829903285391628,1649290693.699696
74.97420837306976,-28.50893893869221,-1.1417479475811123,1649290693.702697
71.86538506793976,-27.932931408673525,-2.4572916529029607,1649290693.7066972
65.62659751415252,-25.9987225330472,-3.1839269672632216,1649290693.7106981
59.82820665097236,-24.6678868098557,-4.306078814506531,1649290693.7146993
53.6736683652401,-23.302438161253928,-5.27411214786768,1649290693.7177
49.68291638875007,-22.646168542444705,-5.567063510209322,1649290693.720701
44.30151836323738,-22.41295655030012,-5.870888344049454,1649290693.723702
39.042781534194944,-22.872956173121928,-6.314804050564766,1649290693.7277024
34.2093451051712,-23.58539292949438,-6.741429594993591,1649290693.7307034
30.669364683628082,-24.415523508518934,-6.149156684428453,1649290693.7337034
24.799237674355506,-25.09897632664442,-4.8393641010522845,1649290693.736704
19.138410608530044,-25.50515897756815,-3.8155172097235917,1649290693.7407057
13.69939085495472,-25.15070777821541,-2.4506551436781883,1649290693.7437055
10.661976724684239,-24.78628683283925,-1.0691797507926821,1649290693.7467077
7.966865997433662,-24.027840621471405,0.5639784525297582,1649290693.7497075
4.0307306820154185,-23.583321792066098,2.841991526737809,1649290693.7537081
0.14503426001314074,-24.00936530852318,5.299814867466688,1649290693.7557092
-2.8062059156447647,-24.888166178822516,7.164224973469972,1649290693.7587094
-6.041365008175373,-26.0755535813272,8.95943559730053,1649290693.7617104
-12.258307815253735,-28.001927612543106,12.470790214776992,1649290693.7647107
-17.188384859085083,-29.842283758580685,14.493421796262265,1649290693.767712
-24.71461445093155,-32.96512313866988,16.711702991366387,1649290693.7707129
-29.212187180161475,-35.26964689181745,18.02555394935608,1649290693.7737136
-35.95173165655136,-39.03876103454828,19.4501148737669,1649290693.776714
-39.92291521978378,-41.60512372255325,20.48320781159401,1649290693.7797148
-43.383854900360106,-44.105933952093125,21.55366560280323,1649290693.7827153
-47.77956026935577,-47.23381843358278,23.457485810399056,1649290693.7857158
-52.345083565711974,-49.30464806783199,24.733866440415383,1649290693.7897167
-57.586591599702835,-50.173948554039,25.426458631873132,1649290693.7927175
-61.58724284601212,-49.84285230576992,25.617643793702126,1649290693.7957184
-67.86454588508606,-48.7530178732872,25.912042555093766,1649290693.7987182
-71.92220327138901,-47.90134602671861,25.817243910193444,1649290693.8017197
-78.38552513504028,-47.10738124674558,25.248941059350965,1649290693.8047209
-82.29076214838028,-47.034903901934626,24.926867682933807,1649290693.8077202
-88.70288089227677,-47.40766357260942,24.220435307383536,1649290693.8107216
-92.62834601449967,-47.71518816745281,24.177234832525254,1649290693.8137226
-97.21695098686219,-47.74575758057833,17.482156526088716,1649290693.817723
-109.44175527763366,-52.90711547267437,17.860227321863174,1649290693.8207242
-108.88206490659714,-50.431398607254025,21.441312150478364,1649290693.8247244
-118.58527472019195,-47.893617615759375,22.9834810795784,1649290693.8277264
-120.46009133291244,-47.99801253074408,21.240294839024543,1649290693.8307261
-122.5246701593399,-49.24965361595154,20.088439429163934,1649290693.8337266
-129.00246697235107,-48.74649954354763,18.171438733100892,1649290693.8377268
-132.21038269710542,-46.596045222640036,18.248958722233773,1649290693.8407283
-139.71610802841187,-42.05119590502977,18.86766500365734,1649290693.8437285
-146.6638689365387,-36.82792011299729,19.216224008798598,1649290693.8467298
-150.77822179222107,-34.84228302524984,18.56678434920311,1649290693.84973
-155.6705552330017,-33.746387399494644,16.821843394994737,1649290693.8537312
-158.5050218667984,-34.501170526251194,15.824963719785213,1649290693.856732
-159.7869485425949,-35.39750582820177,16.549575120568274,1649290693.8597324
-161.1186745672226,-36.665088918447495,17.843959304451943,1649290693.8627334
-161.45860191535948,-36.46547393962741,18.771079043865203,1649290693.8657339
-162.44875902366638,-35.02525746957958,19.288186445832253,1649290693.8687353
-163.05294816589355,-32.76499163399637,19.613625420570372,1649290693.871735
-164.75137290763854,-29.03566178794205,19.1808708435297,1649290693.8747363
-165.11202697181702,-26.793998553961515,19.138797987937927,1649290693.8777363
-165.8148175973892,-23.3278421959877,19.555106199622156,1649290693.8807375
-165.8322151517868,-21.771570355176927,20.177768737077713,1649290693.8837378
-164.69752333450316,-20.413904293119906,20.031051662921904,1649290693.886739
-162.96649735546112,-19.9970965154171,18.731411008954048,1649290693.8897398
-160.06426617336274,-19.311035118877886,20.46778359091282,1649290693.8927395
-154.9522694311142,-19.12920555329323,21.056653987050055,1649290693.8957398
-151.11831789970398,-18.953662273347376,20.83784982407093,1649290693.8997416
-144.4589973974228,-18.990182371139525,20.37002782201767,1649290693.9017413
-137.84218890857696,-17.728415725171565,19.83730442738533,1649290693.904742
-133.3363603954315,-16.774084500074387,19.476485439300536,1649290693.9087434
-126.06935282993317,-15.276324209332467,19.251914692759513,1649290693.911744
-118.83401065444946,-14.827048475861549,19.259447496294975,1649290693.914745
-114.05723901128769,-14.573174970149994,19.49952300775051,1649290693.918746
-104.0790665268898,-15.562860319375991,19.456203634262085,1649290693.9227462
-97.03914000320434,-16.783277090132238,19.364807024359703,1649290693.926747
-86.74305559444427,-19.682950033962726,18.17874141025543,1649290693.9317484
-81.7953690881729,-26.4468188688159,16.361113120913505,1649290693.9347496
-74.006833776474,-30.46656976573914,18.488969031214715,1649290693.9387505
-68.5756210603714,-32.95168813282251,19.870131955623627,1649290693.9427514
-62.13527348041534,-35.595467492803934,20.410092824935912,1649290693.9457521
-56.066679727077485,-40.25615356111526,18.123323142290115,1649290693.9487524
-52.48098469996452,-42.41125355833769,17.51458516860008,1649290693.9517531
-46.94616141629219,-43.45423809510469,17.803238441348075,1649290693.9557552
-38.814542189598086,-45.11395078527927,16.836935850143433,1649290693.9607553
-33.787362360477445,-46.40758897614479,14.544970105588435,1649290693.9637558
-30.081163571715354,-45.27502774560451,14.256663940131665,1649290693.9667566
-28.126790351390838,-43.78021115481853,12.774394031405448,1649290693.9697583
-24.821017218589784,-41.485375542521474,12.722903253674508,1649290693.9727578
-22.269525489091873,-40.902488432288166,12.353923408806324,1649290693.9757583
-17.953004690051078,-40.41241129148006,12.174927274286746,1649290693.9787588
-14.706342394769191,-40.635946469306944,11.930060339808463,1649290693.9817595
-11.813880077540874,-41.355234279811384,11.117572303891182,1649290693.9847608
-8.582234487473965,-42.72262797576189,10.317167820692061,1649290693.9877617
-6.463925465971231,-44.15760116004944,9.65421207165718,1649290693.9907622
-5.179465961694717,-45.13392000198364,9.184503992140293,1649290693.993763
-4.017730219498277,-45.991687321066856,9.068893292665482,1649290693.996763
-1.7828028566017746,-46.99032554537058,9.24586719161272,1649290693.9997642
0.7115030065961182,-47.24486833530664,9.49655728238821,1649290694.0027647
5.073732957690954,-47.21185382938385,10.099791400134563,1649290694.0057662
8.499826230466367,-46.121092179358,10.768041014790535,1649290694.008767
9.416690963029861,-44.898971514523026,11.60895445305109,1649290694.0117679
9.494371081769467,-42.946756687879564,12.378532548666,1649290694.0147676
9.688476930916309,-40.35733150106668,13.494572622776031,1649290694.0187683
11.304276713311673,-38.26281754735112,14.422934085786343,1649290694.0217693
13.469820612788201,-36.195926909655334,15.568998940587043,1649290694.0247693
15.114390028238295,-34.638710591822864,16.208537412643434,1649290694.0277698
17.668635603427887,-32.84877531563118,16.757572932243345,1649290694.0307708
18.754429400205613,-32.30531468251999,17.222995866775513,1649290694.0337725
19.71444762349129,-32.056672401908784,17.463619846105576,1649290694.0367732
22.23399014043808,-32.53508288431354,18.42807375538349,1649290694.040773
28.13617950773239,-34.20947119525075,19.295755686044693,1649290694.0447743
34.48802048158645,-35.541258347198365,18.86571468257904,1649290694.048775
42.31279302740097,-35.97059554748237,17.720935658931733,1649290694.0517762
47.79828872132301,-34.02183093854785,17.5068222386837,1649290694.0547767
57.58548699307442,-33.26278232343495,16.71753477740288,1649290694.0577765
60.95783952331543,-32.279579017093404,14.567440028965473,1649290694.0607781
64.24840897321701,-31.376468920338898,11.172544701993464,1649290694.063779
67.15307949495316,-30.239088759481906,9.979243530929088,1649290694.0667787
71.73810983753204,-29.782911152303218,9.62164535331726,1649290694.0697794
75.56836400508881,-31.425758934766055,6.4403998378217215,1649290694.0727804
79.9836301164627,-32.945770049393175,4.721953142076731,1649290694.0757816
83.33712378978728,-33.81872690819204,3.133561651363969,1649290694.0787823
87.52461848020553,-34.173775716990235,0.21392951391171663,1649290694.0817828
90.29570063781738,-32.59141455624625,-0.676887324463576,1649290694.084784
93.5393012933731,-30.976133457139134,-2.286374392643571,1649290694.0887842
95.46748421382904,-29.639199864283203,-4.840640343606472,1649290694.0917852
95.75576353120803,-28.682705451205372,-6.778430561035871,1649290694.0947857
95.13768242645264,-26.986289760708807,-8.19805671286583,1649290694.0977867
92.18966376543045,-24.648510168582202,-10.019825359344482,1649290694.1007867
88.4817601237297,-23.091175431549548,-9.544750540852547,1649290694.1037877
85.03282536935806,-22.31062510186434,-11.081802034556866,1649290694.1067884
77.46154470300674,-20.39949934053421,-10.177870404601096,1649290694.1097903
69.64735797071457,-19.86388881868124,-10.0231468501091,1649290694.1127892
64.4700360198021,-19.29058838993311,-10.376252768993378,1649290694.1157913
59.139733721733094,-19.00255358183384,-10.332782854497433,1649290694.118791
51.173299211263654,-18.52011376029253,-10.219524238407612,1649290694.1217926
46.35304135298729,-17.643311154067515,-9.157374009549617,1649290694.1247919
39.06870910644531,-16.309094011366366,-7.926401149928569,1649290694.1277928
34.701784876823424,-15.320301360726356,-7.11018986093998,1649290694.1307933
28.813633218765258,-14.022626369595528,-6.250963636487723,1649290694.1347954
25.96994235253334,-13.017451597213745,-5.954116905719042,1649290694.136796
23.384248089671136,-11.71963277709484,-5.840273864507675,1649290694.1397955
22.40581975591183,-11.283399456262588,-5.7982240215539935,1649290694.1427972
21.99394723021984,-11.88479448068142,-5.289717593073845,1649290694.1457975
21.305549092054367,-13.026881025671958,-4.388683637797833,1649290694.1487973
19.980692339897157,-15.490546939611434,-2.690330810546875,1649290694.1527984
17.26123711812496,-18.25220254534483,-0.7340233899764717,1649290694.1557996
14.78867202526331,-20.302129033327102,0.7369144724942743,1649290694.1588016
9.876984955847263,-23.40973842179775,2.7143955576866863,1649290694.1618006
4.740308597534895,-26.95171662798524,4.259986897557974,1649290694.1658013
-1.0023787967823445,-32.37793429817166,5.495575229406357,1649290694.1698024
-4.33342693772912,-36.21646760687232,6.710068163573742,1649290694.1738036
-8.48699284929037,-40.87594527196884,9.339147002398967,1649290694.1798046
-12.50715593612194,-42.18982499575615,10.621476399362088,1649290694.1848056
-17.364063338279724,-42.27543200945854,12.129048703670502,1649290694.1878061
-22.204802444458007,-41.621409958302976,14.179879396557808,1649290694.1918077
-27.152673051834107,-40.90592019194364,15.561543804705142,1649290694.1958084
-31.760831095695494,-40.62695428097248,17.64996851849556,1649290694.1988094
-35.56846384000778,-40.80687475645542,19.332378381848336,1649290694.2028098
-40.17786456632614,-41.3530135602355,20.939701842546462,1649290694.2068117
-44.04337793087959,-42.34242659324408,21.967519133090974,1649290694.2108114
-48.19546384215355,-43.87316399437189,23.096653398275375,1649290694.2148132
-52.5132407476902,-45.77571083599329,24.157094938755034,1649290694.2178133
-56.85924648928642,-46.91665537881851,25.060362078785897,1649290694.220814
-58.30884324622154,-47.2216591309309,25.42782788383961,1649290694.2238147
-62.3910973072052,-47.57340922188759,25.7995395206213,1649290694.2268155
-65.6032626991272,-47.279694127619265,26.257951271414758,1649290694.2298167
-68.39215663862228,-46.33712523716688,26.5782699341774,1649290694.2328172
-69.72093704557419,-45.56292735445499,26.880096024513243,1649290694.235817
-71.19503459119797,-44.017622953414914,27.306899916887282,1649290694.2388184
-72.55571818542481,-42.95448605769872,28.036417803883552,1649290694.2418191
-74.28597707653046,-42.494987918615344,28.519548963427543,1649290694.2448194
-77.93632611036301,-42.602342834174635,28.678021660208703,1649290694.2488215
-79.4083755311966,-40.785855588138105,28.76163424527645,1649290694.2518213
-88.08141692972183,-46.31151408869028,29.635955322027208,1649290694.2548227
-85.77171515321731,-45.42073801684379,30.322157670974732,1649290694.2578228
-92.8584877371788,-44.13230355876684,32.601037854194644,1649290694.2608235
-92.14462036180495,-46.53869389307499,30.15870849120617,1649290694.263824
-93.28124524068832,-49.03357261514664,29.340975491523743,1649290694.266825
-95.98625044345856,-51.14167792880535,28.46435315096378,1649290694.2698264
-99.2830946726799,-48.71772223961353,28.811464277625085,1649290694.2728262
-102.5034448928833,-45.14843905889988,30.52512146806717,1649290694.2758274
-105.68921478891373,-41.0452406206727,31.387399264216423,1649290694.2788272
-109.68864252996444,-36.04705288010835,29.804361807584762,1649290694.2828286
-112.99390938472747,-32.90718306911364,27.311124653697014,1649290694.2858303
